Data from HR4C34221__10__15-21-59-220.txt Node

Date: Fri Apr 07 15:21:59 MSK 2023
User: 123
Spectrometer: HR4C3422
Trigger mode: 4
Integration Time (sec): 1,660000E-1
Scans to average: 1
Electric dark correction enabled: true
Nonlinearity correction enabled: false
Boxcar width: 0
XAxis mode: Wavelengths
Number of Pixels in Spectrum: 3648
>>>>>Begin Spectral Data<<<<<
195,326	-72,54
195,597	-72,54
195,868	-72,54
196,139	-63,54
196,409	-4,54
196,68	-17,54
196,951	10,46
197,221	-21,54
197,492	3,46
197,762	-0,54
198,033	-12,54
198,304	-3,54
198,574	3,46
198,845	27,46
199,116	-8,54
199,386	0,46
199,657	-18,54
199,927	37,46
200,198	2,46
200,468	0,46
200,739	6,46
201,009	1,46
201,28	0,46
201,551	1,46
201,821	1,46
202,092	2,46
202,362	13,46
202,633	4,46
202,903	5,46
203,174	-17,54
203,444	-5,54
203,714	2,46
203,985	3,46
204,255	4,46
204,526	61,46
204,796	-2,54
205,067	7,46
205,337	-8,54
205,607	-4,54
205,878	46,46
206,148	27,46
206,419	-1,54
206,689	-7,54
206,959	13,46
207,23	-0,54
207,5	15,46
207,77	19,46
208,041	-5,54
208,311	10,46
208,581	-7,54
208,852	-2,54
209,122	-8,54
209,392	-19,54
209,663	-3,54
209,933	-11,54
210,203	6,46
210,473	7,46
210,744	6,46
211,014	13,46
211,284	2,46
211,554	13,46
211,825	-1,54
212,095	-22,54
212,365	-1,54
212,635	9,46
212,905	6,46
213,176	10,46
213,446	24,46
213,716	-8,54
213,986	10,46
214,256	-4,54
214,526	4,46
214,797	7,46
215,067	19,46
215,337	8,46
215,607	7,46
215,877	12,46
216,147	2,46
216,417	-18,54
216,687	4,46
216,957	9,46
217,227	1,46
217,497	-4,54
217,767	-0,54
218,038	29,46
218,308	5,46
218,578	-0,54
218,848	9,46
219,118	-8,54
219,388	9,46
219,658	-16,54
219,928	20,46
220,198	-2,54
220,468	29,46
220,737	-15,54
221,007	-1,54
221,277	-1,54
221,547	11,46
221,817	5,46
222,087	2,46
222,357	5,46
222,627	-10,54
222,897	1,46
223,167	-5,54
223,437	-11,54
223,707	33,46
223,976	21,46
224,246	-11,54
224,516	6,46
224,786	19,46
225,056	18,46
225,326	-16,54
225,595	-4,54
225,865	-7,54
226,135	0,46
226,405	0,46
226,675	28,46
226,944	26,46
227,214	-3,54
227,484	-21,54
227,754	-0,54
228,023	-13,54
228,293	-14,54
228,563	15,46
228,833	-1,54
229,102	22,46
229,372	-1,54
229,642	27,46
229,911	24,46
230,181	12,46
230,451	-9,54
230,72	-3,54
230,99	8,46
231,26	6,46
231,529	-6,54
231,799	20,46
232,069	6,46
232,338	26,46
232,608	16,46
232,877	-7,54
233,147	-17,54
233,417	-1,54
233,686	14,46
233,956	4,46
234,225	-10,54
234,495	-38,54
234,764	0,46
235,034	-7,54
235,304	-17,54
235,573	155,46
235,843	-1,54
236,112	-7,54
236,382	-19,54
236,651	-2,54
236,921	-12,54
237,19	-19,54
237,46	-12,54
237,729	1,46
237,998	-2,54
238,268	-16,54
238,537	40,46
238,807	31,46
239,076	-15,54
239,346	-2,54
239,615	4,46
239,884	2,46
240,154	-10,54
240,423	-4,54
240,693	-22,54
240,962	0,46
241,231	-6,54
241,501	3,46
241,77	0,46
242,039	-7,54
242,309	1,46
242,578	-21,54
242,847	-18,54
243,116	6,46
243,386	-10,54
243,655	-8,54
243,924	-4,54
244,194	7,46
244,463	-6,54
244,732	8,46
245,001	-11,54
245,271	134,46
245,54	15,46
245,809	-16,54
246,078	-20,54
246,347	-2,54
246,617	-23,54
246,886	-12,54
247,155	12,46
247,424	10,46
247,693	-17,54
247,963	1,46
248,232	6,46
248,501	18,46
248,77	-20,54
249,039	8,46
249,308	-0,54
249,577	0,46
249,846	-18,54
250,115	-13,54
250,385	15,46
250,654	-10,54
250,923	-1,54
251,192	-1,54
251,461	-7,54
251,73	-3,54
251,999	-12,54
252,268	-2,54
252,537	5,46
252,806	-0,54
253,075	-4,54
253,344	-5,54
253,613	33,46
253,882	-5,54
254,151	-7,54
254,42	-2,54
254,689	-16,54
254,958	-16,54
255,227	-13,54
255,496	-5,54
255,765	-0,54
256,033	-12,54
256,302	2,46
256,571	-13,54
256,84	-18,54
257,109	-8,54
257,378	-24,54
257,647	-23,54
257,916	-6,54
258,184	9,46
258,453	-12,54
258,722	9,46
258,991	-38,54
259,26	15,46
259,529	-9,54
259,797	8,46
260,066	12,46
260,335	-3,54
260,604	-5,54
260,873	9,46
261,141	-14,54
261,41	-23,54
261,679	-2,54
261,948	-8,54
262,216	-15,54
262,485	14,46
262,754	-24,54
263,022	-4,54
263,291	8,46
263,56	-18,54
263,829	-24,54
264,097	7,46
264,366	18,46
264,635	-20,54
264,903	-15,54
265,172	-5,54
265,44	13,46
265,709	3,46
265,978	7,46
266,246	19,46
266,515	6,46
266,784	-13,54
267,052	-7,54
267,321	-8,54
267,589	176,46
267,858	5,46
268,126	-14,54
268,395	0,46
268,663	11,46
268,932	29,46
269,201	-12,54
269,469	11,46
269,738	12,46
270,006	13,46
270,275	23,46
270,543	-13,54
270,811	-12,54
271,08	-18,54
271,348	15,46
271,617	-1,54
271,885	-1,54
272,154	-17,54
272,422	-5,54
272,691	5,46
272,959	46,46
273,227	16,46
273,496	-19,54
273,764	-12,54
274,033	28,46
274,301	-14,54
274,569	-7,54
274,838	-2,54
275,106	-0,54
275,374	3,46
275,643	0,46
275,911	-6,54
276,179	2,46
276,448	23,46
276,716	7,46
276,984	-22,54
277,252	-2,54
277,521	1,46
277,789	-20,54
278,057	-17,54
278,325	-10,54
278,594	25,46
278,862	12,46
279,13	-4,54
279,398	1,46
279,667	10,46
279,935	9,46
280,203	-8,54
280,471	19,46
280,739	8,46
281,008	-7,54
281,276	-6,54
281,544	15,46
281,812	-27,54
282,08	-9,54
282,348	2,46
282,616	7,46
282,884	-4,54
283,153	-0,54
283,421	2,46
283,689	1,46
283,957	-11,54
284,225	-9,54
284,493	1,46
284,761	16,46
285,029	5,46
285,297	-12,54
285,565	-33,54
285,833	-9,54
286,101	-16,54
286,369	-31,54
286,637	-16,54
286,905	-35,54
287,173	-0,54
287,441	-19,54
287,709	-3,54
287,977	25,46
288,245	-20,54
288,513	1,46
288,781	-6,54
289,049	5,46
289,317	-6,54
289,585	-21,54
289,853	6,46
290,12	16,46
290,388	-3,54
290,656	-13,54
290,924	-29,54
291,192	-22,54
291,46	-18,54
291,728	-17,54
291,996	-8,54
292,263	31,46
292,531	10,46
292,799	-25,54
293,067	-16,54
293,335	2,46
293,602	-9,54
293,87	11,46
294,138	8,46
294,406	-12,54
294,673	-1,54
294,941	2,46
295,209	-9,54
295,477	1,46
295,744	12,46
296,012	-5,54
296,28	-1,54
296,548	-12,54
296,815	-3,54
297,083	6,46
297,351	17,46
297,618	10,46
297,886	-18,54
298,154	-1,54
298,421	-0,54
298,689	-4,54
298,956	-18,54
299,224	-11,54
299,492	-9,54
299,759	-2,54
300,027	-2,54
300,294	3,46
300,562	6,46
300,83	3,46
301,097	2,46
301,365	-18,54
301,632	-7,54
301,9	7,46
302,167	8,46
302,435	4,46
302,702	11,46
302,97	0,46
303,237	17,46
303,505	8,46
303,772	6,46
304,04	-19,54
304,307	-32,54
304,575	-4,54
304,842	-9,54
305,11	22,46
305,377	0,46
305,645	6,46
305,912	-17,54
306,179	-6,54
306,447	-2,54
306,714	-4,54
306,982	-23,54
307,249	5,46
307,516	-2,54
307,784	-18,54
308,051	-20,54
308,318	18,46
308,586	15,46
308,853	-10,54
309,12	-20,54
309,388	22,46
309,655	14,46
309,922	-10,54
310,19	-24,54
310,457	-6,54
310,724	-0,54
310,991	-29,54
311,259	-1,54
311,526	4,46
311,793	-0,54
312,06	-6,54
312,328	1,46
312,595	-14,54
312,862	-9,54
313,129	-4,54
313,396	-21,54
313,664	14,46
313,931	-1,54
314,198	11,46
314,465	-13,54
314,732	-16,54
314,999	2,46
315,266	-4,54
315,534	5,46
315,801	-7,54
316,068	-4,54
316,335	-11,54
316,602	-15,54
316,869	-5,54
317,136	7,46
317,403	-2,54
317,67	2,46
317,937	13,46
318,204	-15,54
318,471	3,46
318,738	17,46
319,005	11,46
319,272	-13,54
319,539	-4,54
319,806	4,46
320,073	-1,54
320,34	-2,54
320,607	-2,54
320,874	21,46
321,141	-18,54
321,408	41,46
321,675	-1,54
321,942	18,46
322,209	3,46
322,476	-29,54
322,743	-4,54
323,01	11,46
323,277	-17,54
323,544	-7,54
323,81	2,46
324,077	12,46
324,344	3,46
324,611	11,46
324,878	-11,54
325,145	-3,54
325,412	6,46
325,678	-28,54
325,945	-2,54
326,212	-4,54
326,479	30,46
326,746	3,46
327,012	-5,54
327,279	-26,54
327,546	-3,54
327,813	0,46
328,079	-4,54
328,346	-5,54
328,613	20,46
328,88	8,46
329,146	9,46
329,413	14,46
329,68	-4,54
329,946	-10,54
330,213	-21,54
330,48	-6,54
330,746	-17,54
331,013	15,46
331,28	-16,54
331,546	-3,54
331,813	-13,54
332,08	-21,54
332,346	-6,54
332,613	-9,54
332,879	-5,54
333,146	7,46
333,413	10,46
333,679	-9,54
333,946	-8,54
334,212	6,46
334,479	3,46
334,745	-6,54
335,012	4,46
335,278	-22,54
335,545	6,46
335,811	-17,54
336,078	17,46
336,344	10,46
336,611	-8,54
336,877	-7,54
337,144	-11,54
337,41	-19,54
337,677	20,46
337,943	26,46
338,21	-7,54
338,476	-7,54
338,742	6,46
339,009	0,46
339,275	-28,54
339,542	-14,54
339,808	-3,54
340,074	-3,54
340,341	-22,54
340,607	-2,54
340,873	-1,54
341,14	-3,54
341,406	-6,54
341,672	-13,54
341,939	-9,54
342,205	14,46
342,471	-12,54
342,738	-17,54
343,004	6,46
343,27	-3,54
343,537	34,46
343,803	-0,54
344,069	-25,54
344,335	-24,54
344,602	0,46
344,868	-5,54
345,134	-1,54
345,4	3,46
345,666	8,46
345,933	10,46
346,199	4,46
346,465	3,46
346,731	-1,54
346,997	-19,54
347,263	-3,54
347,53	23,46
347,796	-25,54
348,062	-7,54
348,328	17,46
348,594	-7,54
348,86	-6,54
349,126	2,46
349,392	5,46
349,659	13,46
349,925	-17,54
350,191	-21,54
350,457	-0,54
350,723	-14,54
350,989	-8,54
351,255	-10,54
351,521	-0,54
351,787	-1,54
352,053	-10,54
352,319	15,46
352,585	13,46
352,851	-17,54
353,117	-30,54
353,383	-6,54
353,649	-20,54
353,915	-14,54
354,181	26,46
354,447	6,46
354,713	-5,54
354,978	11,46
355,244	-3,54
355,51	-36,54
355,776	4,46
356,042	14,46
356,308	-1,54
356,574	-6,54
356,84	-2,54
357,106	1,46
357,371	-16,54
357,637	2,46
357,903	5,46
358,169	-8,54
358,435	-12,54
358,701	-4,54
358,966	-4,54
359,232	9,46
359,498	-14,54
359,764	15,46
360,029	-5,54
360,295	-7,54
360,561	-29,54
360,827	6,46
361,092	-12,54
361,358	2,46
361,624	2,46
361,89	-13,54
362,155	-5,54
362,421	3,46
362,687	-3,54
362,952	5,46
363,218	15,46
363,484	4,46
363,749	4,46
364,015	9,46
364,281	4,46
364,546	-13,54
364,812	-4,54
365,077	-0,54
365,343	-10,54
365,609	8,46
365,874	-7,54
366,14	-4,54
366,405	-8,54
366,671	-0,54
366,936	-4,54
367,202	-17,54
367,467	12,46
367,733	5,46
367,999	12,46
368,264	9,46
368,53	-0,54
368,795	-16,54
369,061	-7,54
369,326	1,46
369,591	-3,54
369,857	-1,54
370,122	-6,54
370,388	-16,54
370,653	2,46
370,919	-22,54
371,184	-11,54
371,45	14,46
371,715	0,46
371,98	10,46
372,246	-1,54
372,511	13,46
372,776	13,46
373,042	13,46
373,307	-29,54
373,573	-31,54
373,838	-6,54
374,103	20,46
374,369	10,46
374,634	-14,54
374,899	-1,54
375,164	-12,54
375,43	4,46
375,695	0,46
375,96	-13,54
376,226	13,46
376,491	10,46
376,756	20,46
377,021	11,46
377,286	-5,54
377,552	2,46
377,817	-0,54
378,082	3,46
378,347	-0,54
378,613	13,46
378,878	34,46
379,143	-0,54
379,408	-5,54
379,673	-12,54
379,938	-7,54
380,203	5,46
380,469	16,46
380,734	31,46
380,999	3,46
381,264	-0,54
381,529	-3,54
381,794	6,46
382,059	18,46
382,324	6,46
382,589	-23,54
382,854	-15,54
383,119	-4,54
383,385	-17,54
383,65	-26,54
383,915	-0,54
384,18	-6,54
384,445	-10,54
384,71	11,46
384,975	-0,54
385,24	16,46
385,505	-9,54
385,77	0,46
386,034	-12,54
386,299	2,46
386,564	5,46
386,829	-0,54
387,094	16,46
387,359	-12,54
387,624	-13,54
387,889	12,46
388,154	-4,54
388,419	5,46
388,684	-5,54
388,949	-4,54
389,213	-8,54
389,478	-10,54
389,743	-6,54
390,008	3,46
390,273	27,46
390,538	8,46
390,802	-1,54
391,067	5,46
391,332	-16,54
391,597	-10,54
391,862	-8,54
392,126	12,46
392,391	27,46
392,656	-16,54
392,921	-1,54
393,185	-5,54
393,45	9,46
393,715	-10,54
393,979	-21,54
394,244	-28,54
394,509	5,46
394,774	47,46
395,038	6,46
395,303	-15,54
395,568	21,46
395,832	5,46
396,097	10,46
396,361	0,46
396,626	-12,54
396,891	-10,54
397,155	3,46
397,42	8,46
397,685	-1,54
397,949	-2,54
398,214	5,46
398,478	-1,54
398,743	-9,54
399,007	5,46
399,272	2,46
399,536	-8,54
399,801	9,46
400,066	-9,54
400,33	-14,54
400,595	-3,54
400,859	-5,54
401,124	15,46
401,388	-1,54
401,652	-16,54
401,917	41,46
402,181	-21,54
402,446	-2,54
402,71	1,46
402,975	7,46
403,239	3,46
403,504	10,46
403,768	-6,54
404,032	5,46
404,297	24,46
404,561	-3,54
404,826	19,46
405,09	24,46
405,354	-4,54
405,619	15,46
405,883	2,46
406,147	16,46
406,412	-9,54
406,676	-10,54
406,94	12,46
407,205	16,46
407,469	25,46
407,733	13,46
407,997	6,46
408,262	10,46
408,526	-8,54
408,79	-0,54
409,054	-25,54
409,319	3,46
409,583	-11,54
409,847	-22,54
410,111	-16,54
410,375	23,46
410,64	8,46
410,904	2,46
411,168	-2,54
411,432	3,46
411,696	-18,54
411,96	-9,54
412,225	11,46
412,489	17,46
412,753	1,46
413,017	-13,54
413,281	2,46
413,545	15,46
413,809	-3,54
414,073	0,46
414,337	-22,54
414,602	-4,54
414,866	-16,54
415,13	18,46
415,394	-1,54
415,658	-5,54
415,922	10,46
416,186	-4,54
416,45	1,46
416,714	19,46
416,978	-15,54
417,242	0,46
417,506	13,46
417,77	12,46
418,034	-9,54
418,298	-23,54
418,562	30,46
418,825	9,46
419,089	7,46
419,353	-1,54
419,617	7,46
419,881	-12,54
420,145	-17,54
420,409	2,46
420,673	5,46
420,937	-26,54
421,2	1,46
421,464	6,46
421,728	13,46
421,992	10,46
422,256	-13,54
422,52	-4,54
422,783	3,46
423,047	5,46
423,311	8,46
423,575	4,46
423,839	-20,54
424,102	-42,54
424,366	-16,54
424,63	-0,54
424,894	-8,54
425,157	2,46
425,421	-7,54
425,685	-6,54
425,949	-12,54
426,212	-6,54
426,476	-13,54
426,74	-13,54
427,003	10,46
427,267	1,46
427,531	11,46
427,794	-21,54
428,058	-8,54
428,322	-25,54
428,585	12,46
428,849	3,46
429,112	10,46
429,376	32,46
429,64	33,46
429,903	-9,54
430,167	18,46
430,43	-14,54
430,694	-12,54
430,957	-2,54
431,221	7,46
431,485	-17,54
431,748	-18,54
432,012	-12,54
432,275	14,46
432,539	15,46
432,802	35,46
433,066	5,46
433,329	-30,54
433,593	-10,54
433,856	28,46
434,119	4,46
434,383	9,46
434,646	-22,54
434,91	19,46
435,173	-18,54
435,437	3,46
435,7	-6,54
435,963	-9,54
436,227	3,46
436,49	-34,54
436,753	17,46
437,017	0,46
437,28	-10,54
437,544	1,46
437,807	9,46
438,07	-10,54
438,334	-0,54
438,597	-17,54
438,86	5,46
439,123	-3,54
439,387	18,46
439,65	-7,54
439,913	2,46
440,177	-20,54
440,44	-7,54
440,703	-3,54
440,966	5,46
441,229	5,46
441,493	1,46
441,756	-15,54
442,019	5,46
442,282	9,46
442,545	3,46
442,809	37,46
443,072	29,46
443,335	8,46
443,598	17,46
443,861	21,46
444,124	3,46
444,388	25,46
444,651	20,46
444,914	36,46
445,177	25,46
445,44	22,46
445,703	21,46
445,966	28,46
446,229	20,46
446,492	35,46
446,755	43,46
447,018	18,46
447,281	37,46
447,544	54,46
447,807	50,46
448,07	48,46
448,333	22,46
448,596	47,46
448,859	68,46
449,122	68,46
449,385	52,46
449,648	46,46
449,911	70,46
450,174	65,46
450,437	64,46
450,7	77,46
450,963	69,46
451,226	83,46
451,489	82,46
451,752	110,46
452,015	86,46
452,277	72,46
452,54	127,46
452,803	106,46
453,066	108,46
453,329	133,46
453,592	123,46
453,855	113,46
454,117	140,46
454,38	145,46
454,643	152,46
454,906	165,46
455,169	159,46
455,431	161,46
455,694	185,46
455,957	206,46
456,22	216,46
456,482	208,46
456,745	183,46
457,008	202,46
457,271	221,46
457,533	255,46
457,796	222,46
458,059	220,46
458,321	190,46
458,584	197,46
458,847	204,46
459,109	197,46
459,372	223,46
459,635	208,46
459,897	225,46
460,16	245,46
460,423	255,46
460,685	228,46
460,948	234,46
461,21	209,46
461,473	210,46
461,735	194,46
461,998	225,46
462,261	229,46
462,523	205,46
462,786	235,46
463,048	206,46
463,311	209,46
463,573	245,46
463,836	227,46
464,098	239,46
464,361	220,46
464,623	196,46
464,886	219,46
465,148	242,46
465,411	221,46
465,673	226,46
465,936	230,46
466,198	243,46
466,46	218,46
466,723	209,46
466,985	202,46
467,248	198,46
467,51	222,46
467,772	233,46
468,035	231,46
468,297	222,46
468,56	203,46
468,822	234,46
469,084	227,46
469,347	220,46
469,609	210,46
469,871	229,46
470,133	239,46
470,396	227,46
470,658	207,46
470,92	214,46
471,183	239,46
471,445	224,46
471,707	218,46
471,969	225,46
472,232	191,46
472,494	229,46
472,756	195,46
473,018	215,46
473,281	233,46
473,543	237,46
473,805	197,46
474,067	215,46
474,329	229,46
474,591	217,46
474,854	202,46
475,116	209,46
475,378	203,46
475,64	194,46
475,902	186,46
476,164	183,46
476,426	176,46
476,688	181,46
476,951	160,46
477,213	198,46
477,475	192,46
477,737	162,46
477,999	155,46
478,261	180,46
478,523	154,46
478,785	168,46
479,047	155,46
479,309	150,46
479,571	173,46
479,833	160,46
480,095	143,46
480,357	147,46
480,619	139,46
480,881	106,46
481,143	126,46
481,405	97,46
481,667	126,46
481,929	135,46
482,191	126,46
482,452	111,46
482,714	131,46
482,976	112,46
483,238	121,46
483,5	94,46
483,762	110,46
484,024	95,46
484,286	119,46
484,547	127,46
484,809	128,46
485,071	110,46
485,333	91,46
485,595	103,46
485,857	88,46
486,118	75,46
486,38	123,46
486,642	83,46
486,904	79,46
487,165	75,46
487,427	71,46
487,689	104,46
487,951	87,46
488,212	101,46
488,474	74,46
488,736	65,46
488,998	97,46
489,259	105,46
489,521	74,46
489,783	78,46
490,044	62,46
490,306	66,46
490,568	86,46
490,829	76,46
491,091	63,46
491,353	55,46
491,614	72,46
491,876	46,46
492,137	72,46
492,399	89,46
492,661	73,46
492,922	61,46
493,184	46,46
493,445	64,46
493,707	61,46
493,968	71,46
494,23	56,46
494,491	64,46
494,753	66,46
495,014	65,46
495,276	43,46
495,537	36,46
495,799	38,46
496,06	53,46
496,322	44,46
496,583	65,46
496,845	34,46
497,106	33,46
497,368	26,46
497,629	58,46
497,89	40,46
498,152	79,46
498,413	47,46
498,675	52,46
498,936	33,46
499,197	25,46
499,459	32,46
499,72	43,46
499,981	47,46
500,243	54,46
500,504	46,46
500,765	22,46
501,027	35,46
501,288	39,46
501,549	47,46
501,811	29,46
502,072	31,46
502,333	63,46
502,594	36,46
502,856	18,46
503,117	42,46
503,378	40,46
503,639	52,46
503,901	22,46
504,162	23,46
504,423	46,46
504,684	41,46
504,945	28,46
505,207	43,46
505,468	36,46
505,729	12,46
505,99	14,46
506,251	37,46
506,512	22,46
506,774	25,46
507,035	19,46
507,296	13,46
507,557	35,46
507,818	23,46
508,079	30,46
508,34	16,46
508,601	6,46
508,862	22,46
509,123	30,46
509,384	3,46
509,645	8,46
509,906	11,46
510,167	14,46
510,428	19,46
510,689	-0,54
510,95	-4,54
511,211	23,46
511,472	14,46
511,733	19,46
511,994	24,46
512,255	2,46
512,516	21,46
512,777	14,46
513,038	23,46
513,299	-20,54
513,56	22,46
513,821	10,46
514,082	13,46
514,343	13,46
514,603	8,46
514,864	9,46
515,125	30,46
515,386	22,46
515,647	15,46
515,908	6,46
516,169	8,46
516,429	12,46
516,69	-4,54
516,951	3,46
517,212	18,46
517,473	-1,54
517,733	-7,54
517,994	0,46
518,255	-4,54
518,516	2,46
518,776	-0,54
519,037	-1,54
519,298	-1,54
519,559	36,46
519,819	-2,54
520,08	12,46
520,341	-13,54
520,601	-8,54
520,862	18,46
521,123	-2,54
521,383	2,46
521,644	-14,54
521,905	1,46
522,165	21,46
522,426	-1,54
522,686	10,46
522,947	-13,54
523,208	19,46
523,468	-7,54
523,729	15,46
523,989	4,46
524,25	14,46
524,51	26,46
524,771	12,46
525,032	-5,54
525,292	-5,54
525,553	16,46
525,813	-20,54
526,074	-15,54
526,334	11,46
526,595	-14,54
526,855	-5,54
527,116	-15,54
527,376	6,46
527,636	-13,54
527,897	16,46
528,157	13,46
528,418	13,46
528,678	-4,54
528,939	13,46
529,199	22,46
529,459	1,46
529,72	-4,54
529,98	6,46
530,24	21,46
530,501	-20,54
530,761	14,46
531,022	10,46
531,282	-17,54
531,542	-6,54
531,803	-6,54
532,063	-38,54
532,323	-12,54
532,583	9,46
532,844	-5,54
533,104	-12,54
533,364	-8,54
533,624	12,46
533,885	-7,54
534,145	-16,54
534,405	6,46
534,665	3,46
534,926	10,46
535,186	-7,54
535,446	5,46
535,706	-6,54
535,966	10,46
536,227	3,46
536,487	3,46
536,747	-9,54
537,007	-1,54
537,267	0,46
537,527	-9,54
537,787	6,46
538,048	-12,54
538,308	-6,54
538,568	-7,54
538,828	-19,54
539,088	-6,54
539,348	-21,54
539,608	-16,54
539,868	10,46
540,128	-4,54
540,388	-12,54
540,648	13,46
540,908	-13,54
541,168	14,46
541,428	6,46
541,688	-7,54
541,948	-9,54
542,208	-13,54
542,468	-12,54
542,728	-6,54
542,988	1,46
543,248	5,46
543,508	6,46
543,768	-6,54
544,028	-15,54
544,288	-3,54
544,548	12,46
544,807	0,46
545,067	7,46
545,327	-0,54
545,587	-3,54
545,847	34,46
546,107	-21,54
546,367	-0,54
546,626	-18,54
546,886	-7,54
547,146	-4,54
547,406	0,46
547,666	-15,54
547,925	-3,54
548,185	1,46
548,445	-15,54
548,705	-4,54
548,965	-7,54
549,224	-2,54
549,484	6,46
549,744	25,46
550,003	37,46
550,263	14,46
550,523	-11,54
550,783	0,46
551,042	2,46
551,302	-1,54
551,562	9,46
551,821	0,46
552,081	21,46
552,341	2,46
552,6	0,46
552,86	2,46
553,119	-2,54
553,379	-7,54
553,639	-3,54
553,898	11,46
554,158	-20,54
554,417	-9,54
554,677	5,46
554,936	13,46
555,196	-0,54
555,456	-5,54
555,715	7,46
555,975	-18,54
556,234	-5,54
556,494	-15,54
556,753	-9,54
557,013	2,46
557,272	44,46
557,532	-10,54
557,791	13,46
558,051	18,46
558,31	20,46
558,569	8,46
558,829	-14,54
559,088	23,46
559,348	-15,54
559,607	2,46
559,866	15,46
560,126	-9,54
560,385	-5,54
560,645	0,46
560,904	8,46
561,163	17,46
561,423	-10,54
561,682	-5,54
561,941	2,46
562,201	18,46
562,46	2,46
562,719	13,46
562,979	10,46
563,238	10,46
563,497	-4,54
563,756	-15,54
564,016	19,46
564,275	10,46
564,534	-26,54
564,793	-10,54
565,053	12,46
565,312	-3,54
565,571	-18,54
565,83	3,46
566,089	-5,54
566,349	-0,54
566,608	-7,54
566,867	13,46
567,126	10,46
567,385	-27,54
567,644	-1,54
567,903	-15,54
568,163	-5,54
568,422	-6,54
568,681	2,46
568,94	12,46
569,199	1,46
569,458	-12,54
569,717	-2,54
569,976	3,46
570,235	-4,54
570,494	-5,54
570,753	-11,54
571,012	-11,54
571,271	2,46
571,53	-12,54
571,789	-6,54
572,048	-7,54
572,307	5,46
572,566	21,46
572,825	2,46
573,084	-11,54
573,343	16,46
573,602	2,46
573,861	5,46
574,12	9,46
574,379	-17,54
574,638	-7,54
574,897	-18,54
575,156	-20,54
575,414	3,46
575,673	12,46
575,932	18,46
576,191	-9,54
576,45	11,46
576,709	-9,54
576,968	-5,54
577,226	-1,54
577,485	13,46
577,744	29,46
578,003	1,46
578,262	-21,54
578,52	-17,54
578,779	-6,54
579,038	11,46
579,297	-5,54
579,555	-2,54
579,814	1,46
580,073	-3,54
580,332	-7,54
580,59	-10,54
580,849	-9,54
581,108	9,46
581,366	-16,54
581,625	7,46
581,884	19,46
582,142	22,46
582,401	24,46
582,66	-25,54
582,918	-20,54
583,177	-8,54
583,436	-6,54
583,694	-8,54
583,953	10,46
584,211	-25,54
584,47	-3,54
584,728	15,46
584,987	11,46
585,246	2,46
585,504	3,46
585,763	-2,54
586,021	1,46
586,28	8,46
586,538	13,46
586,797	-9,54
587,055	-15,54
587,314	-14,54
587,572	2,46
587,831	34,46
588,089	3,46
588,348	-2,54
588,606	2,46
588,864	-5,54
589,123	-9,54
589,381	-2,54
589,64	-0,54
589,898	-8,54
590,157	16,46
590,415	3,46
590,673	2,46
590,932	-11,54
591,19	-17,54
591,448	-1,54
591,707	-5,54
591,965	-34,54
592,223	-17,54
592,482	-1,54
592,74	-6,54
592,998	-11,54
593,257	-33,54
593,515	-19,54
593,773	-16,54
594,031	-20,54
594,29	-9,54
594,548	-20,54
594,806	-19,54
595,064	-4,54
595,323	-14,54
595,581	-35,54
595,839	-20,54
596,097	3,46
596,355	20,46
596,613	3,46
596,872	-3,54
597,13	1,46
597,388	0,46
597,646	-5,54
597,904	-5,54
598,162	-12,54
598,42	13,46
598,679	-1,54
598,937	11,46
599,195	5,46
599,453	-14,54
599,711	30,46
599,969	-6,54
600,227	0,46
600,485	1,46
600,743	4,46
601,001	-1,54
601,259	14,46
601,517	-3,54
601,775	-17,54
602,033	-7,54
602,291	-2,54
602,549	2,46
602,807	0,46
603,065	0,46
603,323	-12,54
603,581	-9,54
603,839	-9,54
604,097	4,46
604,355	-2,54
604,613	20,46
604,871	-22,54
605,128	-2,54
605,386	-4,54
605,644	28,46
605,902	-10,54
606,16	-16,54
606,418	8,46
606,676	3,46
606,933	-6,54
607,191	2,46
607,449	-19,54
607,707	-22,54
607,965	-12,54
608,223	1,46
608,48	-30,54
608,738	-13,54
608,996	-5,54
609,254	-2,54
609,511	27,46
609,769	-2,54
610,027	-3,54
610,285	-23,54
610,542	-12,54
610,8	-4,54
611,058	-2,54
611,315	-9,54
611,573	-6,54
611,831	-13,54
612,088	22,46
612,346	-9,54
612,604	10,46
612,861	-16,54
613,119	-8,54
613,376	-10,54
613,634	-1,54
613,892	30,46
614,149	15,46
614,407	9,46
614,664	-25,54
614,922	-0,54
615,18	-16,54
615,437	-9,54
615,695	0,46
615,952	1,46
616,21	10,46
616,467	18,46
616,725	-21,54
616,982	-9,54
617,24	-4,54
617,497	-0,54
617,755	-9,54
618,012	-33,54
618,27	19,46
618,527	-3,54
618,784	-4,54
619,042	-27,54
619,299	3,46
619,557	5,46
619,814	-4,54
620,071	6,46
620,329	1,46
620,586	5,46
620,844	-8,54
621,101	23,46
621,358	-16,54
621,616	-23,54
621,873	6,46
622,13	-3,54
622,388	5,46
622,645	9,46
622,902	6,46
623,159	7,46
623,417	23,46
623,674	-26,54
623,931	-23,54
624,188	-14,54
624,446	2,46
624,703	4,46
624,96	-1,54
625,217	3,46
625,475	15,46
625,732	-3,54
625,989	22,46
626,246	-3,54
626,503	-9,54
626,761	27,46
627,018	-0,54
627,275	-13,54
627,532	6,46
627,789	-3,54
628,046	-5,54
628,303	-0,54
628,56	-13,54
628,818	-3,54
629,075	10,46
629,332	18,46
629,589	11,46
629,846	8,46
630,103	4,46
630,36	16,46
630,617	-18,54
630,874	-21,54
631,131	-5,54
631,388	-9,54
631,645	-16,54
631,902	-21,54
632,159	-7,54
632,416	-12,54
632,673	-21,54
632,93	2,46
633,187	-29,54
633,444	7,46
633,701	4,46
633,958	4,46
634,215	13,46
634,471	-21,54
634,728	-5,54
634,985	-13,54
635,242	1,46
635,499	11,46
635,756	-11,54
636,013	7,46
636,27	-10,54
636,526	-11,54
636,783	3,46
637,04	12,46
637,297	0,46
637,554	1,46
637,81	10,46
638,067	3,46
638,324	10,46
638,581	-12,54
638,838	-6,54
639,094	10,46
639,351	12,46
639,608	7,46
639,864	-2,54
640,121	-13,54
640,378	-3,54
640,635	-16,54
640,891	-10,54
641,148	4,46
641,405	-6,54
641,661	6,46
641,918	20,46
642,175	-7,54
642,431	-16,54
642,688	-5,54
642,944	1,46
643,201	1,46
643,458	-0,54
643,714	3,46
643,971	-1,54
644,227	4,46
644,484	6,46
644,741	-6,54
644,997	-17,54
645,254	-13,54
645,51	-17,54
645,767	-4,54
646,023	-0,54
646,28	-8,54
646,536	2,46
646,793	3,46
647,049	24,46
647,306	6,46
647,562	-14,54
647,819	5,46
648,075	3,46
648,331	-8,54
648,588	2,46
648,844	-16,54
649,101	0,46
649,357	-7,54
649,613	-6,54
649,87	-8,54
650,126	5,46
650,383	-27,54
650,639	-11,54
650,895	-0,54
651,152	0,46
651,408	-3,54
651,664	-16,54
651,921	7,46
652,177	-9,54
652,433	-12,54
652,689	11,46
652,946	0,46
653,202	2,46
653,458	-13,54
653,715	2,46
653,971	-29,54
654,227	-0,54
654,483	0,46
654,739	-0,54
654,996	-19,54
655,252	-9,54
655,508	0,46
655,764	-0,54
656,02	-16,54
656,277	1,46
656,533	0,46
656,789	26,46
657,045	-23,54
657,301	-5,54
657,557	-18,54
657,813	-2,54
658,07	-31,54
658,326	-10,54
658,582	-10,54
658,838	3,46
659,094	-10,54
659,35	-12,54
659,606	-6,54
659,862	-2,54
660,118	-24,54
660,374	-0,54
660,63	9,46
660,886	-13,54
661,142	-20,54
661,398	-9,54
661,654	0,46
661,91	-6,54
662,166	3,46
662,422	-5,54
662,678	2,46
662,934	-22,54
663,19	-3,54
663,446	1,46
663,702	2,46
663,957	7,46
664,213	-7,54
664,469	-1,54
664,725	-12,54
664,981	-10,54
665,237	-21,54
665,493	8,46
665,749	-9,54
666,004	3,46
666,26	2,46
666,516	-17,54
666,772	3,46
667,028	12,46
667,283	-3,54
667,539	17,46
667,795	25,46
668,051	15,46
668,307	24,46
668,562	6,46
668,818	2,46
669,074	-13,54
669,329	-14,54
669,585	14,46
669,841	-17,54
670,097	-13,54
670,352	-12,54
670,608	-3,54
670,864	-11,54
671,119	-9,54
671,375	6,46
671,631	6,46
671,886	-11,54
672,142	-26,54
672,397	27,46
672,653	-2,54
672,909	-2,54
673,164	5,46
673,42	11,46
673,675	26,46
673,931	15,46
674,186	-22,54
674,442	-21,54
674,698	-2,54
674,953	-13,54
675,209	-14,54
675,464	-23,54
675,72	-8,54
675,975	3,46
676,231	6,46
676,486	2,46
676,742	-9,54
676,997	-11,54
677,252	-17,54
677,508	-16,54
677,763	17,46
678,019	0,46
678,274	0,46
678,53	-8,54
678,785	-4,54
679,04	17,46
679,296	-14,54
679,551	-0,54
679,806	-15,54
680,062	-5,54
680,317	-16,54
680,572	16,46
680,828	6,46
681,083	13,46
681,338	-19,54
681,594	-19,54
681,849	-21,54
682,104	2,46
682,36	1,46
682,615	-15,54
682,87	-7,54
683,125	-17,54
683,381	-9,54
683,636	-16,54
683,891	-12,54
684,146	-12,54
684,401	-0,54
684,657	25,46
684,912	12,46
685,167	4,46
685,422	-11,54
685,677	1,46
685,932	-6,54
686,188	0,46
686,443	3,46
686,698	-7,54
686,953	4,46
687,208	15,46
687,463	4,46
687,718	-17,54
687,973	17,46
688,228	-11,54
688,483	-9,54
688,739	-5,54
688,994	13,46
689,249	5,46
689,504	-1,54
689,759	36,46
690,014	7,46
690,269	-15,54
690,524	-10,54
690,779	-15,54
691,034	3,46
691,289	-21,54
691,544	-11,54
691,798	17,46
692,053	25,46
692,308	-5,54
692,563	-18,54
692,818	-19,54
693,073	-1,54
693,328	6,46
693,583	2,46
693,838	3,46
694,093	-14,54
694,347	-20,54
694,602	5,46
694,857	-12,54
695,112	-12,54
695,367	-7,54
695,622	5,46
695,876	5,46
696,131	-7,54
696,386	5,46
696,641	2,46
696,896	-13,54
697,15	-3,54
697,405	-7,54
697,66	19,46
697,915	-13,54
698,169	13,46
698,424	4,46
698,679	-1,54
698,933	-4,54
699,188	-11,54
699,443	-28,54
699,698	-17,54
699,952	-13,54
700,207	-17,54
700,461	1,46
700,716	-2,54
700,971	19,46
701,225	-7,54
701,48	-13,54
701,735	-2,54
701,989	4,46
702,244	-9,54
702,498	-29,54
702,753	-2,54
703,007	0,46
703,262	0,46
703,517	5,46
703,771	-3,54
704,026	9,46
704,28	-7,54
704,535	2,46
704,789	-5,54
705,044	-21,54
705,298	-13,54
705,553	4,46
705,807	-8,54
706,062	-15,54
706,316	20,46
706,57	-2,54
706,825	-10,54
707,079	22,46
707,334	11,46
707,588	-13,54
707,842	-4,54
708,097	-26,54
708,351	-13,54
708,606	-12,54
708,86	-24,54
709,114	-3,54
709,369	-15,54
709,623	-6,54
709,877	-11,54
710,132	-18,54
710,386	-13,54
710,64	-14,54
710,895	5,46
711,149	33,46
711,403	1,46
711,657	13,46
711,912	-16,54
712,166	-0,54
712,42	-7,54
712,674	-17,54
712,928	-16,54
713,183	-21,54
713,437	-20,54
713,691	-13,54
713,945	-20,54
714,199	-21,54
714,454	2,46
714,708	-19,54
714,962	-15,54
715,216	-5,54
715,47	8,46
715,724	-6,54
715,978	-8,54
716,233	-11,54
716,487	-4,54
716,741	22,46
716,995	-0,54
717,249	-27,54
717,503	9,46
717,757	-21,54
718,011	0,46
718,265	13,46
718,519	2,46
718,773	-18,54
719,027	-14,54
719,281	-20,54
719,535	-11,54
719,789	-16,54
720,043	3,46
720,297	25,46
720,551	-20,54
720,805	-1,54
721,059	3,46
721,313	-13,54
721,567	-0,54
721,821	-2,54
722,074	-3,54
722,328	-7,54
722,582	-4,54
722,836	8,46
723,09	-23,54
723,344	2,46
723,598	-9,54
723,851	4,46
724,105	12,46
724,359	-0,54
724,613	17,46
724,867	5,46
725,121	-1,54
725,374	1,46
725,628	-6,54
725,882	-13,54
726,136	9,46
726,389	-16,54
726,643	1,46
726,897	-5,54
727,151	-5,54
727,404	-15,54
727,658	2,46
727,912	-6,54
728,165	-3,54
728,419	13,46
728,673	-9,54
728,926	-21,54
729,18	-3,54
729,434	-22,54
729,687	-1,54
729,941	-9,54
730,195	2,46
730,448	-10,54
730,702	-4,54
730,955	-3,54
731,209	6,46
731,462	9,46
731,716	-18,54
731,97	-21,54
732,223	12,46
732,477	-2,54
732,73	20,46
732,984	-2,54
733,237	-11,54
733,491	33,46
733,744	4,46
733,998	-13,54
734,251	8,46
734,505	6,46
734,758	-5,54
735,012	-6,54
735,265	9,46
735,518	14,46
735,772	11,46
736,025	1,46
736,279	-24,54
736,532	-7,54
736,785	29,46
737,039	-2,54
737,292	2,46
737,546	-2,54
737,799	-9,54
738,052	-12,54
738,306	6,46
738,559	-10,54
738,812	4,46
739,066	-15,54
739,319	-14,54
739,572	-1,54
739,825	-0,54
740,079	-5,54
740,332	15,46
740,585	19,46
740,838	-10,54
741,092	-8,54
741,345	-11,54
741,598	12,46
741,851	-2,54
742,104	-2,54
742,358	-16,54
742,611	-0,54
742,864	23,46
743,117	-13,54
743,37	-2,54
743,623	-10,54
743,877	-8,54
744,13	-3,54
744,383	5,46
744,636	-22,54
744,889	-11,54
745,142	11,46
745,395	-22,54
745,648	-12,54
745,901	11,46
746,154	9,46
746,408	1,46
746,661	-17,54
746,914	-23,54
747,167	-31,54
747,42	-8,54
747,673	-7,54
747,926	2,46
748,179	4,46
748,432	1,46
748,685	-4,54
748,938	57,46
749,19	11,46
749,443	-2,54
749,696	2,46
749,949	29,46
750,202	14,46
750,455	9,46
750,708	12,46
750,961	-5,54
751,214	82,46
751,467	3,46
751,719	-10,54
751,972	-12,54
752,225	18,46
752,478	-1,54
752,731	-10,54
752,984	45,46
753,236	16,46
753,489	-1,54
753,742	-22,54
753,995	-5,54
754,248	-2,54
754,5	-12,54
754,753	-11,54
755,006	21,46
755,259	-25,54
755,511	1,46
755,764	-12,54
756,017	-6,54
756,269	-6,54
756,522	-3,54
756,775	35,46
757,027	3,46
757,28	-24,54
757,533	-16,54
757,785	-9,54
758,038	-12,54
758,291	-19,54
758,543	-21,54
758,796	9,46
759,049	-0,54
759,301	-8,54
759,554	6,46
759,806	8,46
760,059	-2,54
760,311	-0,54
760,564	-1,54
760,817	-10,54
761,069	-9,54
761,322	-19,54
761,574	-24,54
761,827	-8,54
762,079	8,46
762,332	-0,54
762,584	-15,54
762,837	19,46
763,089	-8,54
763,341	-13,54
763,594	-5,54
763,846	-10,54
764,099	13,46
764,351	-1,54
764,604	-5,54
764,856	-10,54
765,108	-21,54
765,361	-9,54
765,613	0,46
765,865	-9,54
766,118	13,46
766,37	9,46
766,623	-10,54
766,875	-0,54
767,127	-5,54
767,379	-8,54
767,632	0,46
767,884	-8,54
768,136	1,46
768,389	11,46
768,641	4,46
768,893	-0,54
769,145	7,46
769,398	-4,54
769,65	5,46
769,902	-5,54
770,154	-10,54
770,406	-2,54
770,659	-12,54
770,911	9,46
771,163	30,46
771,415	3,46
771,667	78,46
771,919	10,46
772,172	14,46
772,424	-13,54
772,676	-19,54
772,928	4,46
773,18	-4,54
773,432	-4,54
773,684	-11,54
773,936	-9,54
774,188	5,46
774,44	-13,54
774,693	-6,54
774,945	-12,54
775,197	-5,54
775,449	-7,54
775,701	-21,54
775,953	-5,54
776,205	-23,54
776,457	-13,54
776,709	3,46
776,961	-9,54
777,213	12,46
777,464	-9,54
777,716	-23,54
777,968	-5,54
778,22	-32,54
778,472	-21,54
778,724	-7,54
778,976	-2,54
779,228	-9,54
779,48	-8,54
779,732	3,46
779,984	15,46
780,235	22,46
780,487	-1,54
780,739	11,46
780,991	-20,54
781,243	-24,54
781,494	-1,54
781,746	-10,54
781,998	-20,54
782,25	-9,54
782,502	-13,54
782,753	5,46
783,005	-1,54
783,257	-13,54
783,509	3,46
783,76	-33,54
784,012	18,46
784,264	-16,54
784,515	1,46
784,767	6,46
785,019	-10,54
785,271	-7,54
785,522	-0,54
785,774	-9,54
786,026	-14,54
786,277	-1,54
786,529	-5,54
786,78	5,46
787,032	10,46
787,284	-5,54
787,535	-8,54
787,787	-15,54
788,038	-31,54
788,29	-10,54
788,541	3,46
788,793	-29,54
789,045	-7,54
789,296	-5,54
789,548	-24,54
789,799	-2,54
790,051	-11,54
790,302	-19,54
790,554	-8,54
790,805	-5,54
791,057	6,46
791,308	-13,54
791,559	-34,54
791,811	-15,54
792,062	9,46
792,314	8,46
792,565	-12,54
792,817	-3,54
793,068	5,46
793,319	-9,54
793,571	-1,54
793,822	-6,54
794,073	9,46
794,325	-15,54
794,576	-5,54
794,827	-9,54
795,079	-6,54
795,33	-9,54
795,581	-20,54
795,833	-27,54
796,084	5,46
796,335	-0,54
796,587	-20,54
796,838	-9,54
797,089	1,46
797,34	-16,54
797,592	-16,54
797,843	-12,54
798,094	-20,54
798,345	-12,54
798,596	-14,54
798,848	-16,54
799,099	-5,54
799,35	-8,54
799,601	-5,54
799,852	-0,54
800,103	-7,54
800,355	-2,54
800,606	80,46
800,857	3,46
801,108	-6,54
801,359	5,46
801,61	-20,54
801,861	-36,54
802,112	-19,54
802,363	-22,54
802,614	-8,54
802,865	-21,54
803,116	3,46
803,367	-13,54
803,618	1,46
803,869	-5,54
804,12	-20,54
804,371	-4,54
804,622	-8,54
804,873	-12,54
805,124	-11,54
805,375	-5,54
805,626	-18,54
805,877	-7,54
806,128	1,46
806,379	-16,54
806,63	-12,54
806,881	-5,54
807,132	-5,54
807,383	-33,54
807,634	-23,54
807,884	-13,54
808,135	-3,54
808,386	-2,54
808,637	-16,54
808,888	-12,54
809,139	-18,54
809,389	-15,54
809,64	10,46
809,891	-16,54
810,142	-13,54
810,393	-13,54
810,643	-7,54
810,894	-0,54
811,145	-26,54
811,396	-10,54
811,646	-24,54
811,897	-12,54
812,148	18,46
812,398	5,46
812,649	-4,54
812,9	-6,54
813,151	-4,54
813,401	-8,54
813,652	21,46
813,902	10,46
814,153	-8,54
814,404	0,46
814,654	-10,54
814,905	-9,54
815,156	-2,54
815,406	-21,54
815,657	-12,54
815,907	-29,54
816,158	-25,54
816,408	-25,54
816,659	-34,54
816,91	-6,54
817,16	-7,54
817,411	-7,54
817,661	-4,54
817,912	-3,54
818,162	-24,54
818,413	13,46
818,663	-16,54
818,914	-20,54
819,164	-19,54
819,414	-24,54
819,665	7,46
819,915	-19,54
820,166	-10,54
820,416	-23,54
820,667	4,46
820,917	-7,54
821,167	-3,54
821,418	6,46
821,668	-21,54
821,918	-1,54
822,169	-19,54
822,419	-5,54
822,67	-22,54
822,92	-24,54
823,17	-9,54
823,42	1,46
823,671	2,46
823,921	-9,54
824,171	-5,54
824,422	-34,54
824,672	-9,54
824,922	4,46
825,172	-0,54
825,423	-9,54
825,673	-20,54
825,923	-16,54
826,173	11,46
826,423	-27,54
826,674	-30,54
826,924	-11,54
827,174	-12,54
827,424	-5,54
827,674	1,46
827,924	13,46
828,175	7,46
828,425	-22,54
828,675	-11,54
828,925	-10,54
829,175	17,46
829,425	2,46
829,675	-12,54
829,925	-13,54
830,175	-4,54
830,425	-16,54
830,675	-3,54
830,925	-25,54
831,175	21,46
831,425	2,46
831,676	-10,54
831,926	-5,54
832,175	-36,54
832,425	-26,54
832,675	1,46
832,925	10,46
833,175	-19,54
833,425	-25,54
833,675	-25,54
833,925	0,46
834,175	6,46
834,425	4,46
834,675	-4,54
834,925	-13,54
835,175	3,46
835,425	-2,54
835,674	-17,54
835,924	-18,54
836,174	-19,54
836,424	-34,54
836,674	-10,54
836,924	-15,54
837,173	-20,54
837,423	-9,54
837,673	-20,54
837,923	-11,54
838,173	-23,54
838,422	-1,54
838,672	2,46
838,922	-7,54
839,172	-1,54
839,421	13,46
839,671	-13,54
839,921	-29,54
840,17	-16,54
840,42	-0,54
840,67	-1,54
840,919	-10,54
841,169	4,46
841,419	-4,54
841,668	-6,54
841,918	-15,54
842,168	-15,54
842,417	-14,54
842,667	-6,54
842,916	-20,54
843,166	-5,54
843,416	-5,54
843,665	-4,54
843,915	-5,54
844,164	18,46
844,414	-0,54
844,663	-18,54
844,913	-14,54
845,162	5,46
845,412	6,46
845,662	-9,54
845,911	-5,54
846,16	-27,54
846,41	-7,54
846,659	-27,54
846,909	-10,54
847,158	-7,54
847,408	-16,54
847,657	-1,54
847,907	-15,54
848,156	9,46
848,405	0,46
848,655	-5,54
848,904	-6,54
849,154	-6,54
849,403	-9,54
849,652	-8,54
849,902	-34,54
850,151	-29,54
850,4	-24,54
850,65	-15,54
850,899	-18,54
851,148	13,46
851,398	-25,54
851,647	24,46
851,896	-8,54
852,145	-9,54
852,395	-0,54
852,644	-25,54
852,893	-10,54
853,142	15,46
853,392	-30,54
853,641	-17,54
853,89	-25,54
854,139	23,46
854,388	-10,54
854,637	7,46
854,887	-12,54
855,136	-18,54
855,385	-2,54
855,634	-6,54
855,883	23,46
856,132	-7,54
856,381	-13,54
856,631	-12,54
856,88	1,46
857,129	7,46
857,378	-6,54
857,627	-33,54
857,876	-5,54
858,125	5,46
858,374	6,46
858,623	-20,54
858,872	-2,54
859,121	-3,54
859,37	-16,54
859,619	-8,54
859,868	12,46
860,117	-20,54
860,366	-35,54
860,615	-9,54
860,864	-26,54
861,113	-2,54
861,362	5,46
861,611	-20,54
861,86	-30,54
862,108	-11,54
862,357	4,46
862,606	-20,54
862,855	-13,54
863,104	-20,54
863,353	-9,54
863,602	-9,54
863,851	45,46
864,099	-18,54
864,348	-25,54
864,597	-7,54
864,846	-13,54
865,095	-6,54
865,343	-6,54
865,592	-21,54
865,841	-6,54
866,09	13,46
866,338	-21,54
866,587	-9,54
866,836	2,46
867,085	-4,54
867,333	-2,54
867,582	-19,54
867,831	-11,54
868,079	-10,54
868,328	-5,54
868,577	-13,54
868,825	1,46
869,074	13,46
869,323	1,46
869,571	-28,54
869,82	-24,54
870,068	-10,54
870,317	-19,54
870,566	-18,54
870,814	-29,54
871,063	-12,54
871,311	14,46
871,56	4,46
871,808	-6,54
872,057	22,46
872,306	-17,54
872,554	-27,54
872,803	-26,54
873,051	-12,54
873,3	-16,54
873,548	-28,54
873,797	-14,54
874,045	-3,54
874,293	19,46
874,542	-12,54
874,79	-21,54
875,039	-18,54
875,287	-20,54
875,536	-38,54
875,784	-27,54
876,032	26,46
876,281	-5,54
876,529	-11,54
876,777	-9,54
877,026	-28,54
877,274	-1,54
877,523	2,46
877,771	-14,54
878,019	-26,54
878,267	-9,54
878,516	-6,54
878,764	-11,54
879,012	8,46
879,261	5,46
879,509	8,46
879,757	-9,54
880,005	21,46
880,254	-10,54
880,502	-16,54
880,75	-21,54
880,998	-10,54
881,246	9,46
881,495	-21,54
881,743	-0,54
881,991	-20,54
882,239	-9,54
882,487	-1,54
882,735	-4,54
882,984	-10,54
883,232	3,46
883,48	-6,54
883,728	7,46
883,976	-17,54
884,224	-48,54
884,472	-19,54
884,72	-15,54
884,968	6,46
885,216	27,46
885,464	-8,54
885,712	-2,54
885,96	14,46
886,208	10,46
886,457	-7,54
886,704	-10,54
886,952	-20,54
887,2	-15,54
887,448	-9,54
887,696	-12,54
887,944	7,46
888,192	10,46
888,44	-2,54
888,688	-23,54
888,936	17,46
889,184	8,46
889,432	-3,54
889,68	-28,54
889,928	-29,54
890,175	-5,54
890,423	3,46
890,671	-5,54
890,919	15,46
891,167	5,46
891,415	-14,54
891,663	-9,54
891,91	-7,54
892,158	12,46
892,406	-8,54
892,654	-26,54
892,901	5,46
893,149	0,46
893,397	-25,54
893,645	-24,54
893,892	-14,54
894,14	10,46
894,388	-8,54
894,636	-6,54
894,883	-38,54
895,131	10,46
895,379	-22,54
895,626	-17,54
895,874	-17,54
896,122	-6,54
896,369	-16,54
896,617	-5,54
896,864	7,46
897,112	5,46
897,36	-19,54
897,607	-8,54
897,855	-20,54
898,102	-2,54
898,35	-14,54
898,598	-11,54
898,845	-1,54
899,093	-6,54
899,34	-5,54
899,588	-19,54
899,835	-18,54
900,083	16,46
900,33	-15,54
900,578	-9,54
900,825	-1,54
901,073	-9,54
901,32	-1,54
901,568	-9,54
901,815	-1,54
902,062	-7,54
902,31	-20,54
902,557	-2,54
902,805	100,46
903,052	-9,54
903,299	-30,54
903,547	-6,54
903,794	7,46
904,042	-21,54
904,289	-6,54
904,536	-10,54
904,784	-10,54
905,031	-11,54
905,278	1,46
905,525	-1,54
905,773	-9,54
906,02	-11,54
906,267	-19,54
906,515	22,46
906,762	7,46
907,009	0,46
907,256	-7,54
907,504	-8,54
907,751	5,46
907,998	-1,54
908,245	-0,54
908,492	-21,54
908,74	-9,54
908,987	32,46
909,234	-7,54
909,481	-23,54
909,728	-9,54
909,975	-5,54
910,222	-16,54
910,47	-25,54
910,717	-27,54
910,964	-2,54
911,211	-35,54
911,458	-25,54
911,705	32,46
911,952	-7,54
912,199	-21,54
912,446	-26,54
912,693	-4,54
912,94	-5,54
913,187	-8,54
913,434	-11,54
913,681	-13,54
913,928	-18,54
914,175	-13,54
914,422	-15,54
914,669	6,46
914,916	-8,54
915,163	-1,54
915,41	-33,54
915,657	-34,54
915,904	2,46
916,151	-12,54
916,398	-1,54
916,644	-18,54
916,891	-6,54
917,138	-19,54
917,385	5,46
917,632	-25,54
917,879	-2,54
918,126	7,46
918,372	-5,54
918,619	6,46
918,866	-2,54
919,113	-4,54
919,36	-22,54
919,606	15,46
919,853	-10,54
920,1	-25,54
920,347	-24,54
920,593	-13,54
920,84	-17,54
921,087	-14,54
921,334	-16,54
921,58	-3,54
921,827	-6,54
922,074	-24,54
922,32	-13,54
922,567	-8,54
922,814	15,46
923,06	-2,54
923,307	1,46
923,554	10,46
923,8	-9,54
924,047	-10,54
924,293	-12,54
924,54	-6,54
924,787	-22,54
925,033	3,46
925,28	-8,54
925,526	6,46
925,773	1,46
926,019	-17,54
926,266	-18,54
926,512	-1,54
926,759	-9,54
927,005	-0,54
927,252	-10,54
927,498	-11,54
927,745	-23,54
927,991	-15,54
928,238	-11,54
928,484	9,46
928,731	-9,54
928,977	-25,54
929,223	5,46
929,47	-15,54
929,716	-18,54
929,963	-18,54
930,209	2,46
930,455	30,46
930,702	-6,54
930,948	-9,54
931,194	-16,54
931,441	1,46
931,687	-19,54
931,933	-8,54
932,18	-29,54
932,426	-16,54
932,672	-10,54
932,919	-1,54
933,165	-2,54
933,411	28,46
933,657	17,46
933,904	-22,54
934,15	-13,54
934,396	-30,54
934,642	-1,54
934,889	-23,54
935,135	-10,54
935,381	-5,54
935,627	-7,54
935,873	-26,54
936,119	6,46
936,366	-2,54
936,612	-1,54
936,858	-4,54
937,104	-1,54
937,35	12,46
937,596	-3,54
937,842	-29,54
938,088	-15,54
938,334	10,46
938,58	9,46
938,827	-1,54
939,073	-1,54
939,319	-5,54
939,565	-0,54
939,811	7,46
940,057	-16,54
940,303	-2,54
940,549	-19,54
940,795	-10,54
941,041	-2,54
941,287	7,46
941,533	13,46
941,778	-24,54
942,024	-33,54
942,27	-22,54
942,516	-1,54
942,762	-6,54
943,008	-15,54
943,254	21,46
943,5	-13,54
943,746	1,46
943,992	-9,54
944,237	-3,54
944,483	-20,54
944,729	10,46
944,975	4,46
945,221	19,46
945,467	11,46
945,712	-10,54
945,958	2,46
946,204	-16,54
946,45	-2,54
946,695	-2,54
946,941	5,46
947,187	30,46
947,433	-12,54
947,678	-6,54
947,924	-22,54
948,17	-14,54
948,415	-8,54
948,661	1,46
948,907	-6,54
949,153	-18,54
949,398	3,46
949,644	1,46
949,889	10,46
950,135	-9,54
950,381	-8,54
950,626	7,46
950,872	17,46
951,118	25,46
951,363	-0,54
951,609	7,46
951,854	-14,54
952,1	-33,54
952,345	-27,54
952,591	-24,54
952,836	-5,54
953,082	-18,54
953,327	5,46
953,573	-21,54
953,818	-4,54
954,064	16,46
954,309	21,46
954,555	-3,54
954,8	-11,54
955,046	-15,54
955,291	6,46
955,537	-1,54
955,782	-30,54
956,027	6,46
956,273	10,46
956,518	-2,54
956,764	16,46
957,009	12,46
957,254	7,46
957,5	3,46
957,745	-9,54
957,99	-0,54
958,236	-17,54
958,481	-17,54
958,726	9,46
958,972	7,46
959,217	-17,54
959,462	-0,54
959,707	-6,54
959,953	6,46
960,198	5,46
960,443	1,46
960,688	-2,54
960,934	53,46
961,179	0,46
961,424	-16,54
961,669	-15,54
961,914	-10,54
962,16	-12,54
962,405	-8,54
962,65	0,46
962,895	5,46
963,14	12,46
963,385	-6,54
963,63	-3,54
963,876	-0,54
964,121	14,46
964,366	-11,54
964,611	-5,54
964,856	-14,54
965,101	-24,54
965,346	8,46
965,591	-2,54
965,836	-9,54
966,081	-14,54
966,326	-25,54
966,571	-3,54
966,816	11,46
967,061	9,46
967,306	5,46
967,551	6,46
967,796	-4,54
968,041	-11,54
968,286	-17,54
968,531	-6,54
968,776	-19,54
969,021	-21,54
969,266	8,46
969,511	-16,54
969,755	-14,54
970	2,46
970,245	-6,54
970,49	7,46
970,735	19,46
970,98	-5,54
971,225	-2,54
971,469	12,46
971,714	2,46
971,959	9,46
972,204	-18,54
972,449	-25,54
972,693	-15,54
972,938	-2,54
973,183	-3,54
973,428	-4,54
973,672	9,46
973,917	-2,54
974,162	-0,54
974,407	5,46
974,651	10,46
974,896	-7,54
975,141	-10,54
975,385	1,46
975,63	-2,54
975,875	-20,54
976,119	46,46
976,364	-4,54
976,608	1,46
976,853	-14,54
977,098	6,46
977,342	-22,54
977,587	11,46
977,831	10,46
978,076	-2,54
978,321	2,46
978,565	-2,54
978,81	-21,54
979,054	1,46
979,299	-5,54
979,543	5,46
979,788	9,46
980,032	5,46
980,277	-18,54
980,521	-13,54
980,766	3,46
981,01	-13,54
981,255	-10,54
981,499	11,46
981,743	-7,54
981,988	-28,54
982,232	-7,54
982,477	22,46
982,721	-0,54
982,965	-10,54
983,21	-11,54
983,454	8,46
983,699	-10,54
983,943	-7,54
984,187	-1,54
984,432	10,46
984,676	23,46
984,92	5,46
985,165	-4,54
985,409	-5,54
985,653	-4,54
985,897	-4,54
986,142	-7,54
986,386	6,46
986,63	4,46
986,874	-36,54
987,119	-20,54
987,363	-14,54
987,607	-8,54
987,851	-18,54
988,095	13,46
988,34	-11,54
988,584	6,46
988,828	-2,54
989,072	-0,54
989,316	5,46
989,56	-6,54
989,804	-10,54
990,049	-17,54
990,293	2,46
990,537	-9,54
990,781	-16,54
991,025	-16,54
991,269	-20,54
991,513	1,46
991,757	4,46
992,001	-34,54
992,245	-17,54
992,489	-2,54
992,733	-7,54
992,977	-11,54
993,221	-10,54
993,465	-25,54
993,709	-18,54
993,953	-20,54
994,197	-17,54
994,441	7,46
994,685	-8,54
994,929	-10,54
995,173	4,46
995,417	-6,54
995,661	-19,54
995,904	-11,54
996,148	6,46
996,392	-16,54
996,636	-26,54
996,88	-2,54
997,124	4,46
997,368	6,46
997,611	24,46
997,855	-11,54
998,099	3,46
998,343	-9,54
998,587	-3,54
998,83	11,46
999,074	23,46
999,318	14,46
999,562	-12,54
999,805	-10,54
1000,049	-9,54
1000,293	-5,54
1000,537	-0,54
1000,78	2,46
1001,024	11,46
1001,268	-8,54
1001,511	-9,54
1001,755	-20,54
1001,999	-14,54
1002,242	-30,54
1002,486	5,46
1002,73	-2,54
1002,973	-1,54
1003,217	-1,54
1003,46	-3,54
1003,704	-6,54
1003,948	-3,54
1004,191	-18,54
1004,435	-0,54
1004,678	10,46
1004,922	-5,54
1005,165	15,46
1005,409	18,46
1005,652	-2,54
1005,896	27,46
1006,139	12,46
1006,383	4,46
1006,626	-10,54
1006,87	5,46
1007,113	-7,54
1007,357	7,46
1007,6	10,46
1007,844	-1,54
1008,087	-3,54
1008,33	-32,54
1008,574	-14,54
1008,817	-5,54
1009,061	-20,54
1009,304	-10,54
1009,547	-27,54
1009,791	7,46
1010,034	-2,54
1010,277	7,46
1010,521	-13,54
1010,764	-13,54
1011,007	-17,54
1011,251	-18,54
1011,494	-29,54
1011,737	-5,54
1011,98	-3,54
1012,224	7,46
1012,467	-3,54
1012,71	-12,54
1012,953	-11,54
1013,197	-11,54
1013,44	-26,54
1013,683	-19,54
1013,926	-24,54
1014,169	-17,54
1014,413	-6,54
1014,656	12,46
1014,899	-28,54
1015,142	6,46
1015,385	1,46
1015,628	23,46
1015,871	0,46
1016,115	-11,54
1016,358	-5,54
1016,601	-2,54
1016,844	2,46
1017,087	-18,54
1017,33	-17,54
1017,573	-1,54
1017,816	-14,54
1018,059	1,46
1018,302	-4,54
1018,545	-8,54
1018,788	-6,54
1019,031	-6,54
1019,274	-23,54
1019,517	-22,54
1019,76	9,46
1020,003	-22,54
1020,246	-27,54
1020,489	4,46
1020,732	-24,54
1020,975	-15,54
1021,218	-8,54
1021,461	-19,54
1021,703	-23,54
1021,946	-5,54
1022,189	-25,54
1022,432	-18,54
1022,675	38,46
1022,918	5,46
1023,161	-6,54
1023,403	-8,54
1023,646	-8,54
1023,889	-14,54
1024,132	-5,54
1024,375	-6,54
1024,617	5,46
1024,86	-22,54
1025,103	-9,54
1025,346	-21,54
1025,588	-2,54
1025,831	-22,54
1026,074	-32,54
1026,317	-3,54
1026,559	-9,54
1026,802	-18,54
1027,045	-1,54
1027,287	-20,54
1027,53	-8,54
1027,773	-12,54
1028,015	-21,54
1028,258	-2,54
1028,501	-5,54
1028,743	-23,54
1028,986	3,46
1029,228	14,46
1029,471	-13,54
1029,714	-6,54
1029,956	-4,54
1030,199	3,46
1030,441	-3,54
1030,684	-15,54
1030,926	-8,54
1031,169	-11,54
1031,411	5,46
1031,654	-15,54
1031,896	-4,54
1032,139	-2,54
1032,381	-15,54
1032,624	-23,54
1032,866	-11,54
1033,109	1,46
1033,351	-3,54
1033,594	-13,54
1033,836	-33,54
1034,079	-34,54
1034,321	-26,54
1034,563	-11,54
1034,806	-18,54
1035,048	-10,54
1035,29	-9,54
1035,533	-6,54
1035,775	-9,54
1036,018	19,46
1036,26	-22,54
1036,502	23,46
1036,744	-7,54
1036,987	-2,54
1037,229	-21,54
1037,471	-22,54
1037,714	37,46
1037,956	-25,54
1038,198	-12,54
1038,44	-10,54
1038,683	9,46
1038,925	3,46
1039,167	10,46
1039,409	-19,54
1039,651	-19,54
1039,894	9,46
1040,136	-28,54
1040,378	-8,54
1040,62	-11,54
1040,862	0,46
1041,104	5,46
1041,347	-17,54
1041,589	-9,54
1041,831	3,46
1042,073	-1,54
1042,315	-14,54
1042,557	-17,54
1042,799	22,46
1043,041	13,46
1043,283	-3,54
1043,525	-18,54
1043,767	24,46
1044,009	-2,54
1044,251	-37,54
1044,493	-29,54
1044,735	-16,54
1044,977	-20,54
1045,219	-14,54
1045,461	-20,54
1045,703	-15,54
1045,945	-3,54
1046,187	-11,54
1046,429	-4,54
1046,671	-22,54
1046,913	27,46
1047,155	1,46
1047,397	-9,54
1047,639	-2,54
1047,881	7,46
1048,122	-13,54
1048,364	-11,54
1048,606	-1,54
1048,848	-15,54
1049,09	-21,54
1049,332	-11,54
1049,573	-21,54
1049,815	-12,54
1050,057	-13,54
1050,299	-13,54
1050,541	1,46
1050,782	5,46
1051,024	-22,54
1051,266	-6,54
1051,508	18,46
1051,749	10,46
1051,991	-21,54
1052,233	11,46
1052,474	-18,54
1052,716	-4,54
1052,958	-20,54
1053,199	7,46
1053,441	-12,54
1053,683	-19,54
1053,924	-26,54
1054,166	-10,54
1054,408	-23,54
1054,649	-17,54
1054,891	-14,54
1055,132	-18,54
1055,374	-13,54
1055,616	2,46
1055,857	-27,54
1056,099	-19,54
1056,34	12,46
1056,582	-16,54
1056,823	0,46
1057,065	-10,54
1057,306	-11,54
1057,548	-26,54
1057,789	-10,54
1058,031	-10,54
1058,272	-2,54
1058,514	0,46
1058,755	-29,54
1058,997	-4,54
1059,238	17,46
1059,479	-9,54
1059,721	0,46
1059,962	-6,54
1060,204	-5,54
1060,445	-28,54
1060,686	-25,54
1060,928	-8,54
1061,169	-8,54
1061,41	-13,54
1061,652	2,46
1061,893	-17,54
1062,134	26,46
1062,376	-1,54
1062,617	-7,54
1062,858	-26,54
1063,1	-12,54
1063,341	5,46
1063,582	-2,54
1063,823	-11,54
1064,065	-28,54
1064,306	8,46
1064,547	4,46
1064,788	-18,54
1065,029	-25,54
1065,271	-18,54
1065,512	-22,54
1065,753	-20,54
1065,994	4,46
1066,235	-21,54
1066,476	-14,54
1066,718	-4,54
1066,959	13,46
1067,2	-18,54
1067,441	-2,54
1067,682	-14,54
1067,923	8,46
1068,164	-13,54
1068,405	-16,54
1068,646	-21,54
1068,887	4,46
1069,128	-8,54
1069,369	-10,54
1069,61	-8,54
1069,851	-2,54
1070,092	-3,54
1070,333	-32,54
1070,574	-39,54
1070,815	-16,54
1071,056	-23,54
1071,297	-26,54
1071,538	-4,54
1071,779	-18,54
1072,02	3,46
1072,261	-10,54
1072,502	-20,54
1072,743	-3,54
1072,984	-6,54
1073,225	-11,54
1073,466	-9,54
1073,706	-4,54
1073,947	-18,54
1074,188	-1,54
1074,429	3,46
1074,67	10,46
1074,911	-17,54
1075,151	-18,54
1075,392	-40,54
1075,633	-10,54
1075,874	-17,54
1076,114	-9,54
1076,355	5,46
1076,596	-8,54
1076,837	-2,54
1077,077	-16,54
1077,318	-13,54
1077,559	-9,54
1077,8	-15,54
1078,04	-18,54
1078,281	-10,54
1078,522	-16,54
1078,762	-22,54
1079,003	-11,54
1079,244	1,46
1079,484	10,46
1079,725	12,46
1079,965	2,46
1080,206	-10,54
1080,447	9,46
1080,687	-4,54
1080,928	-23,54
1081,168	-10,54
1081,409	1,46
1081,649	-35,54
1081,89	-19,54
1082,131	-6,54
1082,371	-3,54
1082,612	10,46
1082,852	-4,54
1083,093	9,46
1083,333	7,46
1083,573	-18,54
1083,814	-4,54
1084,054	-7,54
1084,295	55,46
1084,535	2,46
1084,776	-35,54
1085,016	-4,54
1085,257	-5,54
1085,497	19,46
1085,737	11,46
1085,978	12,46
1086,218	-5,54
1086,458	-15,54
1086,699	7,46
1086,939	1,46
1087,179	-6,54
1087,42	20,46
1087,66	-10,54
1087,9	-13,54
1088,141	-13,54
1088,381	-6,54
1088,621	-21,54
1088,861	-22,54
1089,102	4,46
1089,342	-18,54
1089,582	-30,54
1089,822	-2,54
1090,063	-9,54
1090,303	10,46
1090,543	-4,54
1090,783	-8,54
1091,023	-2,54
1091,263	-17,54
1091,504	-27,54
1091,744	-24,54
1091,984	10,46
1092,224	-8,54
1092,464	-25,54
1092,704	-23,54
1092,944	9,46
1093,184	0,46
1093,425	-4,54
1093,665	-26,54
1093,905	2,46
1094,145	-4,54
1094,385	-6,54
1094,625	-17,54
1094,865	3,46
1095,105	10,46
1095,345	-12,54
1095,585	-27,54
1095,825	-5,54
1096,065	14,46
1096,305	-14,54
1096,545	-1,54
1096,785	3,46
1097,025	7,46
1097,265	-22,54
1097,504	-11,54
1097,744	-26,54
1097,984	-3,54
1098,224	9,46
1098,464	-1,54
1098,704	15,46
1098,944	6,46
1099,184	-12,54
1099,423	-10,54
1099,663	-8,54
1099,903	-21,54
1100,143	-17,54
1100,383	-6,54
1100,622	-2,54
1100,862	7,46
1101,102	-11,54
1101,342	3,46
1101,582	8,46
1101,821	-13,54
1102,061	-12,54
1102,301	2,46
1102,54	9,46
1102,78	4,46
1103,02	-14,54
1103,26	-25,54
1103,499	-7,54
1103,739	11,46
1103,979	-9,54
1104,218	-2,54
1104,458	-10,54
1104,697	-16,54
1104,937	-1,54
1105,177	1,46
1105,416	-12,54
1105,656	-8,54
1105,896	-19,54
1106,135	-2,54
1106,375	-6,54
1106,614	5,46
1106,854	-4,54
1107,093	5,46
1107,333	-15,54
1107,572	-21,54
1107,812	-2,54
1108,051	3,46
1108,291	-0,54
1108,53	-0,54
1108,77	13,46
1109,009	-4,54
1109,249	2,46
1109,488	-0,54
1109,728	-32,54
1109,967	-18,54
1110,206	-3,54
1110,446	17,46
1110,685	-19,54
1110,925	-14,54
1111,164	8,46
1111,403	13,46
1111,643	2,46
1111,882	-15,54
1112,121	-17,54
1112,361	17,46
1112,6	-12,54
1112,839	2,46
1113,079	4,46
1113,318	13,46
1113,557	-2,54
1113,796	6,46
1114,036	-8,54
1114,275	-11,54
1114,514	-1,54
1114,753	16,46
1114,993	28,46
1115,232	-10,54
1115,471	-0,54
1115,71	11,46
1115,949	9,46
1116,188	-2,54
1116,428	2,46
1116,667	-10,54
1116,906	-7,54
1117,145	17,46
1117,384	-1,54
1117,623	9,46
1117,862	10,46
1118,101	-1,54
1118,341	5,46
1118,58	2,46
1118,819	20,46
1119,058	-21,54
1119,297	-18,54
1119,536	-5,54
1119,775	19,46
1120,014	-12,54
1120,253	-28,54
1120,492	-10,54
1120,731	3,46
1120,97	6,46
1121,209	1,46
1121,448	-4,54
1121,687	9,46
1121,926	11,46
1122,165	-14,54
1122,404	-8,54
1122,642	10,46
1122,881	-18,54
1123,12	-18,54
1123,359	-0,54
1123,598	18,46
1123,837	10,46
1124,076	-10,54
1124,315	-13,54
1124,553	8,46
1124,792	-14,54
1125,031	-8,54
1125,27	-9,54
1125,509	6,46
1125,747	18,46
1125,986	17,46
1126,225	-5,54
