Data from HR4C34221__9__15-19-13-249.txt Node

Date: Fri Apr 07 15:19:13 MSK 2023
User: 123
Spectrometer: HR4C3422
Trigger mode: 4
Integration Time (sec): 1,320000E-1
Scans to average: 1
Electric dark correction enabled: true
Nonlinearity correction enabled: false
Boxcar width: 0
XAxis mode: Wavelengths
Number of Pixels in Spectrum: 3648
>>>>>Begin Spectral Data<<<<<
195,326	-64,46
195,597	-64,46
195,868	-64,46
196,139	-53,46
196,409	8,54
196,68	3,54
196,951	7,54
197,221	6,54
197,492	0,54
197,762	0,54
198,033	4,54
198,304	-13,46
198,574	-2,46
198,845	9,54
199,116	-16,46
199,386	-4,46
199,657	-7,46
199,927	11,54
200,198	3,54
200,468	1,54
200,739	19,54
201,009	12,54
201,28	10,54
201,551	1,54
201,821	5,54
202,092	-0,46
202,362	-3,46
202,633	-6,46
202,903	-17,46
203,174	-6,46
203,444	-7,46
203,714	2,54
203,985	5,54
204,255	2,54
204,526	58,54
204,796	-10,46
205,067	20,54
205,337	9,54
205,607	4,54
205,878	54,54
206,148	15,54
206,419	-13,46
206,689	-13,46
206,959	3,54
207,23	-11,46
207,5	8,54
207,77	19,54
208,041	0,54
208,311	13,54
208,581	0,54
208,852	3,54
209,122	2,54
209,392	4,54
209,663	-9,46
209,933	-1,46
210,203	-9,46
210,473	-11,46
210,744	-13,46
211,014	34,54
211,284	3,54
211,554	6,54
211,825	4,54
212,095	-9,46
212,365	-11,46
212,635	9,54
212,905	15,54
213,176	10,54
213,446	35,54
213,716	5,54
213,986	13,54
214,256	11,54
214,526	6,54
214,797	-3,46
215,067	-3,46
215,337	1,54
215,607	-5,46
215,877	13,54
216,147	2,54
216,417	-15,46
216,687	3,54
216,957	8,54
217,227	15,54
217,497	-21,46
217,767	-6,46
218,038	32,54
218,308	-1,46
218,578	-10,46
218,848	2,54
219,118	-2,46
219,388	13,54
219,658	4,54
219,928	19,54
220,198	14,54
220,468	1,54
220,737	-15,46
221,007	14,54
221,277	4,54
221,547	19,54
221,817	17,54
222,087	5,54
222,357	6,54
222,627	15,54
222,897	14,54
223,167	-16,46
223,437	-7,46
223,707	21,54
223,976	22,54
224,246	-2,46
224,516	12,54
224,786	15,54
225,056	6,54
225,326	-10,46
225,595	4,54
225,865	-14,46
226,135	-0,46
226,405	3,54
226,675	24,54
226,944	29,54
227,214	-1,46
227,484	0,54
227,754	-3,46
228,023	7,54
228,293	1,54
228,563	8,54
228,833	8,54
229,102	15,54
229,372	-5,46
229,642	14,54
229,911	22,54
230,181	-0,46
230,451	-2,46
230,72	-1,46
230,99	-7,46
231,26	6,54
231,529	16,54
231,799	15,54
232,069	14,54
232,338	30,54
232,608	13,54
232,877	-0,46
233,147	-1,46
233,417	0,54
233,686	6,54
233,956	-0,46
234,225	-12,46
234,495	-17,46
234,764	-8,46
235,034	-4,46
235,304	-16,46
235,573	118,54
235,843	10,54
236,112	-13,46
236,382	-2,46
236,651	2,54
236,921	3,54
237,19	-15,46
237,46	-13,46
237,729	-7,46
237,998	6,54
238,268	-9,46
238,537	31,54
238,807	24,54
239,076	0,54
239,346	-12,46
239,615	2,54
239,884	2,54
240,154	14,54
240,423	-11,46
240,693	-22,46
240,962	-0,46
241,231	9,54
241,501	6,54
241,77	-5,46
242,039	-4,46
242,309	-8,46
242,578	-4,46
242,847	4,54
243,116	1,54
243,386	0,54
243,655	2,54
243,924	-0,46
244,194	-4,46
244,463	2,54
244,732	2,54
245,001	4,54
245,271	102,54
245,54	10,54
245,809	-18,46
246,078	-9,46
246,347	-13,46
246,617	-8,46
246,886	-6,46
247,155	5,54
247,424	2,54
247,693	-9,46
247,963	-16,46
248,232	6,54
248,501	21,54
248,77	-9,46
249,039	4,54
249,308	18,54
249,577	14,54
249,846	-9,46
250,115	-7,46
250,385	12,54
250,654	-2,46
250,923	11,54
251,192	1,54
251,461	-1,46
251,73	-2,46
251,999	5,54
252,268	6,54
252,537	6,54
252,806	-15,46
253,075	-10,46
253,344	3,54
253,613	22,54
253,882	-2,46
254,151	4,54
254,42	-3,46
254,689	-13,46
254,958	-11,46
255,227	3,54
255,496	13,54
255,765	8,54
256,033	-4,46
256,302	1,54
256,571	-14,46
256,84	-3,46
257,109	-6,46
257,378	-13,46
257,647	-16,46
257,916	-11,46
258,184	8,54
258,453	-23,46
258,722	18,54
258,991	-11,46
259,26	-1,46
259,529	-23,46
259,797	7,54
260,066	4,54
260,335	7,54
260,604	-2,46
260,873	-12,46
261,141	11,54
261,41	-4,46
261,679	-9,46
261,948	11,54
262,216	-12,46
262,485	10,54
262,754	-5,46
263,022	0,54
263,291	21,54
263,56	-13,46
263,829	-16,46
264,097	-5,46
264,366	-1,46
264,635	-3,46
264,903	-7,46
265,172	11,54
265,44	4,54
265,709	-0,46
265,978	1,54
266,246	7,54
266,515	-2,46
266,784	1,54
267,052	-2,46
267,321	0,54
267,589	149,54
267,858	15,54
268,126	-6,46
268,395	-5,46
268,663	14,54
268,932	6,54
269,201	-7,46
269,469	11,54
269,738	-3,46
270,006	-1,46
270,275	3,54
270,543	-9,46
270,811	21,54
271,08	5,54
271,348	19,54
271,617	-5,46
271,885	-11,46
272,154	-20,46
272,422	-6,46
272,691	-8,46
272,959	23,54
273,227	7,54
273,496	5,54
273,764	3,54
274,033	21,54
274,301	-2,46
274,569	-0,46
274,838	3,54
275,106	5,54
275,374	23,54
275,643	31,54
275,911	-14,46
276,179	11,54
276,448	19,54
276,716	-0,46
276,984	-3,46
277,252	9,54
277,521	-4,46
277,789	-1,46
278,057	-10,46
278,325	-9,46
278,594	18,54
278,862	12,54
279,13	0,54
279,398	-3,46
279,667	-6,46
279,935	-5,46
280,203	0,54
280,471	11,54
280,739	-5,46
281,008	-1,46
281,276	0,54
281,544	0,54
281,812	-19,46
282,08	5,54
282,348	1,54
282,616	-4,46
282,884	-1,46
283,153	18,54
283,421	-2,46
283,689	2,54
283,957	-15,46
284,225	-3,46
284,493	-4,46
284,761	12,54
285,029	1,54
285,297	-14,46
285,565	-15,46
285,833	-13,46
286,101	-17,46
286,369	-28,46
286,637	0,54
286,905	-17,46
287,173	-11,46
287,441	6,54
287,709	9,54
287,977	18,54
288,245	-20,46
288,513	3,54
288,781	-6,46
289,049	6,54
289,317	-9,46
289,585	-4,46
289,853	22,54
290,12	9,54
290,388	-2,46
290,656	-12,46
290,924	-13,46
291,192	-6,46
291,46	-30,46
291,728	-7,46
291,996	-16,46
292,263	9,54
292,531	-17,46
292,799	-20,46
293,067	6,54
293,335	7,54
293,602	2,54
293,87	7,54
294,138	9,54
294,406	5,54
294,673	12,54
294,941	10,54
295,209	-8,46
295,477	9,54
295,744	8,54
296,012	2,54
296,28	-8,46
296,548	-22,46
296,815	-14,46
297,083	-2,46
297,351	-3,46
297,618	7,54
297,886	-3,46
298,154	2,54
298,421	-1,46
298,689	-9,46
298,956	-3,46
299,224	3,54
299,492	-19,46
299,759	-7,46
300,027	5,54
300,294	7,54
300,562	-10,46
300,83	9,54
301,097	-1,46
301,365	-18,46
301,632	-12,46
301,9	-4,46
302,167	-2,46
302,435	-8,46
302,702	10,54
302,97	-3,46
303,237	-1,46
303,505	8,54
303,772	2,54
304,04	-14,46
304,307	-25,46
304,575	-5,46
304,842	-11,46
305,11	21,54
305,377	-3,46
305,645	8,54
305,912	-20,46
306,179	-9,46
306,447	-2,46
306,714	-4,46
306,982	-4,46
307,249	4,54
307,516	-8,46
307,784	-5,46
308,051	-9,46
308,318	25,54
308,586	-6,46
308,853	-5,46
309,12	-14,46
309,388	12,54
309,655	10,54
309,922	-10,46
310,19	-11,46
310,457	-0,46
310,724	5,54
310,991	-7,46
311,259	-1,46
311,526	5,54
311,793	-11,46
312,06	3,54
312,328	16,54
312,595	-2,46
312,862	-13,46
313,129	7,54
313,396	0,54
313,664	0,54
313,931	1,54
314,198	-4,46
314,465	-3,46
314,732	-7,46
314,999	8,54
315,266	5,54
315,534	9,54
315,801	6,54
316,068	-1,46
316,335	-0,46
316,602	-21,46
316,869	-10,46
317,136	11,54
317,403	22,54
317,67	5,54
317,937	20,54
318,204	-3,46
318,471	-9,46
318,738	22,54
319,005	24,54
319,272	-0,46
319,539	0,54
319,806	3,54
320,073	-5,46
320,34	24,54
320,607	-11,46
320,874	19,54
321,141	-4,46
321,408	26,54
321,675	-3,46
321,942	17,54
322,209	-1,46
322,476	-29,46
322,743	-14,46
323,01	17,54
323,277	-24,46
323,544	13,54
323,81	11,54
324,077	-1,46
324,344	-13,46
324,611	-2,46
324,878	6,54
325,145	-10,46
325,412	-8,46
325,678	-9,46
325,945	-10,46
326,212	-13,46
326,479	13,54
326,746	0,54
327,012	9,54
327,279	-6,46
327,546	3,54
327,813	-9,46
328,079	1,54
328,346	-8,46
328,613	19,54
328,88	13,54
329,146	9,54
329,413	-2,46
329,68	2,54
329,946	-4,46
330,213	-9,46
330,48	-11,46
330,746	-13,46
331,013	15,54
331,28	-9,46
331,546	-6,46
331,813	-18,46
332,08	-11,46
332,346	-0,46
332,613	-7,46
332,879	-9,46
333,146	6,54
333,413	-4,46
333,679	-13,46
333,946	-5,46
334,212	-7,46
334,479	-11,46
334,745	-1,46
335,012	1,54
335,278	-27,46
335,545	-2,46
335,811	-23,46
336,078	22,54
336,344	-8,46
336,611	8,54
336,877	-2,46
337,144	-4,46
337,41	-11,46
337,677	10,54
337,943	10,54
338,21	-1,46
338,476	-0,46
338,742	17,54
339,009	8,54
339,275	-13,46
339,542	-19,46
339,808	0,54
340,074	2,54
340,341	-7,46
340,607	11,54
340,873	-0,46
341,14	-6,46
341,406	-1,46
341,672	9,54
341,939	-12,46
342,205	7,54
342,471	-2,46
342,738	-21,46
343,004	-1,46
343,27	-5,46
343,537	23,54
343,803	1,54
344,069	3,54
344,335	-10,46
344,602	-4,46
344,868	-12,46
345,134	-2,46
345,4	9,54
345,666	5,54
345,933	-5,46
346,199	0,54
346,465	10,54
346,731	13,54
346,997	-11,46
347,263	-10,46
347,53	14,54
347,796	-11,46
348,062	16,54
348,328	22,54
348,594	-1,46
348,86	-1,46
349,126	4,54
349,392	-10,46
349,659	-2,46
349,925	-10,46
350,191	-13,46
350,457	-8,46
350,723	-16,46
350,989	15,54
351,255	0,54
351,521	1,54
351,787	-2,46
352,053	-8,46
352,319	2,54
352,585	-2,46
352,851	-5,46
353,117	-17,46
353,383	-5,46
353,649	-13,46
353,915	-10,46
354,181	9,54
354,447	10,54
354,713	7,54
354,978	12,54
355,244	-6,46
355,51	-24,46
355,776	-2,46
356,042	4,54
356,308	0,54
356,574	3,54
356,84	-7,46
357,106	-7,46
357,371	-11,46
357,637	-5,46
357,903	-12,46
358,169	-12,46
358,435	-14,46
358,701	-10,46
358,966	3,54
359,232	8,54
359,498	-2,46
359,764	6,54
360,029	-5,46
360,295	-11,46
360,561	-28,46
360,827	-9,46
361,092	3,54
361,358	7,54
361,624	2,54
361,89	-26,46
362,155	-6,46
362,421	3,54
362,687	3,54
362,952	-5,46
363,218	25,54
363,484	-1,46
363,749	9,54
364,015	8,54
364,281	25,54
364,546	3,54
364,812	-5,46
365,077	-2,46
365,343	0,54
365,609	12,54
365,874	18,54
366,14	13,54
366,405	-3,46
366,671	0,54
366,936	-14,46
367,202	-16,46
367,467	13,54
367,733	9,54
367,999	3,54
368,264	-9,46
368,53	-8,46
368,795	0,54
369,061	-1,46
369,326	-11,46
369,591	-21,46
369,857	-3,46
370,122	-11,46
370,388	-18,46
370,653	-1,46
370,919	-8,46
371,184	-9,46
371,45	9,54
371,715	12,54
371,98	-9,46
372,246	0,54
372,511	6,54
372,776	4,54
373,042	4,54
373,307	-4,46
373,573	-29,46
373,838	-1,46
374,103	-0,46
374,369	16,54
374,634	4,54
374,899	-6,46
375,164	-10,46
375,43	11,54
375,695	17,54
375,96	2,54
376,226	5,54
376,491	10,54
376,756	-10,46
377,021	0,54
377,286	-8,46
377,552	13,54
377,817	10,54
378,082	24,54
378,347	13,54
378,613	36,54
378,878	35,54
379,143	2,54
379,408	13,54
379,673	-3,46
379,938	-5,46
380,203	-10,46
380,469	-3,46
380,734	37,54
380,999	7,54
381,264	-1,46
381,529	-8,46
381,794	-5,46
382,059	-0,46
382,324	0,54
382,589	3,54
382,854	-0,46
383,119	0,54
383,385	-7,46
383,65	-5,46
383,915	-6,46
384,18	-11,46
384,445	-5,46
384,71	7,54
384,975	0,54
385,24	14,54
385,505	-14,46
385,77	-1,46
386,034	10,54
386,299	4,54
386,564	8,54
386,829	1,54
387,094	-0,46
387,359	-16,46
387,624	-11,46
387,889	8,54
388,154	-7,46
388,419	-4,46
388,684	-5,46
388,949	6,54
389,213	6,54
389,478	-25,46
389,743	-11,46
390,008	-12,46
390,273	30,54
390,538	-11,46
390,802	-5,46
391,067	15,54
391,332	-27,46
391,597	-6,46
391,862	0,54
392,126	-3,46
392,391	6,54
392,656	-16,46
392,921	-6,46
393,185	-4,46
393,45	-1,46
393,715	-2,46
393,979	5,54
394,244	-25,46
394,509	5,54
394,774	35,54
395,038	16,54
395,303	-4,46
395,568	12,54
395,832	-3,46
396,097	-2,46
396,361	7,54
396,626	-24,46
396,891	-3,46
397,155	13,54
397,42	18,54
397,685	-10,46
397,949	-1,46
398,214	-4,46
398,478	-0,46
398,743	1,54
399,007	1,54
399,272	10,54
399,536	-7,46
399,801	-0,46
400,066	-13,46
400,33	-7,46
400,595	-7,46
400,859	-1,46
401,124	-2,46
401,388	24,54
401,652	2,54
401,917	29,54
402,181	-11,46
402,446	-4,46
402,71	2,54
402,975	1,54
403,239	13,54
403,504	-7,46
403,768	-0,46
404,032	-7,46
404,297	14,54
404,561	7,54
404,826	14,54
405,09	2,54
405,354	-19,46
405,619	15,54
405,883	-8,46
406,147	4,54
406,412	-9,46
406,676	5,54
406,94	11,54
407,205	-0,46
407,469	16,54
407,733	-2,46
407,997	-8,46
408,262	7,54
408,526	-9,46
408,79	-4,46
409,054	-23,46
409,319	-1,46
409,583	-16,46
409,847	-17,46
410,111	-1,46
410,375	20,54
410,64	9,54
410,904	1,54
411,168	-6,46
411,432	-2,46
411,696	-8,46
411,96	-7,46
412,225	0,54
412,489	8,54
412,753	3,54
413,017	-6,46
413,281	3,54
413,545	6,54
413,809	-1,46
414,073	0,54
414,337	-13,46
414,602	0,54
414,866	-4,46
415,13	8,54
415,394	8,54
415,658	-4,46
415,922	10,54
416,186	0,54
416,45	-7,46
416,714	12,54
416,978	-1,46
417,242	2,54
417,506	1,54
417,77	11,54
418,034	11,54
418,298	-9,46
418,562	19,54
418,825	14,54
419,089	8,54
419,353	-4,46
419,617	6,54
419,881	-12,46
420,145	-10,46
420,409	10,54
420,673	-8,46
420,937	-33,46
421,2	-12,46
421,464	15,54
421,728	8,54
421,992	-4,46
422,256	1,54
422,52	12,54
422,783	-0,46
423,047	-0,46
423,311	9,54
423,575	2,54
423,839	-16,46
424,102	-17,46
424,366	-6,46
424,63	-6,46
424,894	0,54
425,157	0,54
425,421	-1,46
425,685	-3,46
425,949	-8,46
426,212	4,54
426,476	-20,46
426,74	-18,46
427,003	0,54
427,267	-2,46
427,531	-10,46
427,794	8,54
428,058	-16,46
428,322	-24,46
428,585	-10,46
428,849	-5,46
429,112	-1,46
429,376	22,54
429,64	23,54
429,903	0,54
430,167	19,54
430,43	-15,46
430,694	-3,46
430,957	16,54
431,221	3,54
431,485	-12,46
431,748	-18,46
432,012	-15,46
432,275	12,54
432,539	9,54
432,802	20,54
433,066	-4,46
433,329	-24,46
433,593	-4,46
433,856	-0,46
434,119	11,54
434,383	-4,46
434,646	-15,46
434,91	37,54
435,173	-9,46
435,437	5,54
435,7	6,54
435,963	-9,46
436,227	0,54
436,49	-10,46
436,753	7,54
437,017	-0,46
437,28	0,54
437,544	4,54
437,807	-2,46
438,07	-5,46
438,334	-16,46
438,597	-0,46
438,86	15,54
439,123	2,54
439,387	-3,46
439,65	-14,46
439,913	-0,46
440,177	-17,46
440,44	-21,46
440,703	-8,46
440,966	-7,46
441,229	-1,46
441,493	-2,46
441,756	-3,46
442,019	-13,46
442,282	-6,46
442,545	-6,46
442,809	27,54
443,072	18,54
443,335	-2,46
443,598	10,54
443,861	9,54
444,124	-21,46
444,388	2,54
444,651	-13,46
444,914	21,54
445,177	14,54
445,44	1,54
445,703	-11,46
445,966	-4,46
446,229	-2,46
446,492	24,54
446,755	20,54
447,018	-6,46
447,281	-4,46
447,544	10,54
447,807	21,54
448,07	23,54
448,333	-1,46
448,596	-1,46
448,859	14,54
449,122	11,54
449,385	-10,46
449,648	-21,46
449,911	21,54
450,174	-12,46
450,437	5,54
450,7	1,54
450,963	2,54
451,226	1,54
451,489	-17,46
451,752	9,54
452,015	2,54
452,277	3,54
452,54	21,54
452,803	-5,46
453,066	2,54
453,329	26,54
453,592	-12,46
453,855	-21,46
454,117	10,54
454,38	22,54
454,643	-7,46
454,906	6,54
455,169	-5,46
455,431	-11,46
455,694	0,54
455,957	31,54
456,22	11,54
456,482	6,54
456,745	10,54
457,008	5,54
457,271	18,54
457,533	46,54
457,796	-24,46
458,059	-6,46
458,321	1,54
458,584	-5,46
458,847	-19,46
459,109	-18,46
459,372	-6,46
459,635	-18,46
459,897	5,54
460,16	11,54
460,423	12,54
460,685	-0,46
460,948	7,54
461,21	-16,46
461,473	-1,46
461,735	-17,46
461,998	8,54
462,261	-7,46
462,523	-23,46
462,786	1,54
463,048	-3,46
463,311	-8,46
463,573	-5,46
463,836	8,54
464,098	12,54
464,361	-4,46
464,623	-12,46
464,886	-9,46
465,148	15,54
465,411	6,54
465,673	2,54
465,936	18,54
466,198	22,54
466,46	-0,46
466,723	-2,46
466,985	-5,46
467,248	7,54
467,51	11,54
467,772	11,54
468,035	-0,46
468,297	10,54
468,56	-12,46
468,822	10,54
469,084	-11,46
469,347	-4,46
469,609	-2,46
469,871	18,54
470,133	23,54
470,396	9,54
470,658	-7,46
470,92	2,54
471,183	11,54
471,445	10,54
471,707	6,54
471,969	-11,46
472,232	-28,46
472,494	10,54
472,756	0,54
473,018	13,54
473,281	28,54
473,543	11,54
473,805	-1,46
474,067	15,54
474,329	18,54
474,591	10,54
474,854	-2,46
475,116	0,54
475,378	3,54
475,64	2,54
475,902	-1,46
476,164	4,54
476,426	-6,46
476,688	-5,46
476,951	-3,46
477,213	13,54
477,475	17,54
477,737	-28,46
477,999	-14,46
478,261	1,54
478,523	-22,46
478,785	-2,46
479,047	-9,46
479,309	-4,46
479,571	8,54
479,833	7,54
480,095	1,54
480,357	-0,46
480,619	1,54
480,881	-12,46
481,143	-4,46
481,405	-19,46
481,667	15,54
481,929	7,54
482,191	3,54
482,452	-6,46
482,714	-1,46
482,976	8,54
483,238	-13,46
483,5	-9,46
483,762	-0,46
484,024	-6,46
484,286	4,54
484,547	14,54
484,809	15,54
485,071	12,54
485,333	-4,46
485,595	-2,46
485,857	-0,46
486,118	-11,46
486,38	27,54
486,642	-25,46
486,904	-12,46
487,165	3,54
487,427	-17,46
487,689	28,54
487,951	-4,46
488,212	12,54
488,474	1,54
488,736	-26,46
488,998	3,54
489,259	13,54
489,521	-2,46
489,783	-1,46
490,044	-4,46
490,306	-0,46
490,568	20,54
490,829	-4,46
491,091	-22,46
491,353	6,54
491,614	15,54
491,876	-12,46
492,137	25,54
492,399	24,54
492,661	14,54
492,922	13,54
493,184	-10,46
493,445	-2,46
493,707	9,54
493,968	20,54
494,23	22,54
494,491	10,54
494,753	11,54
495,014	11,54
495,276	-17,46
495,537	-13,46
495,799	5,54
496,06	7,54
496,322	1,54
496,583	22,54
496,845	-1,46
497,106	-2,46
497,368	-15,46
497,629	3,54
497,89	-6,46
498,152	22,54
498,413	-13,46
498,675	5,54
498,936	-1,46
499,197	-6,46
499,459	-8,46
499,72	-0,46
499,981	4,54
500,243	14,54
500,504	8,54
500,765	-9,46
501,027	-9,46
501,288	1,54
501,549	4,54
501,811	-5,46
502,072	-15,46
502,333	29,54
502,594	12,54
502,856	-14,46
503,117	-6,46
503,378	-3,46
503,639	6,54
503,901	-3,46
504,162	-9,46
504,423	-0,46
504,684	-10,46
504,945	-8,46
505,207	20,54
505,468	3,54
505,729	-10,46
505,99	-6,46
506,251	-9,46
506,512	15,54
506,774	6,54
507,035	-11,46
507,296	-1,46
507,557	14,54
507,818	-1,46
508,079	6,54
508,34	-21,46
508,601	0,54
508,862	-6,46
509,123	7,54
509,384	1,54
509,645	-1,46
509,906	2,54
510,167	4,54
510,428	2,54
510,689	-4,46
510,95	-13,46
511,211	-1,46
511,472	3,54
511,733	-2,46
511,994	15,54
512,255	-3,46
512,516	0,54
512,777	6,54
513,038	2,54
513,299	-23,46
513,56	1,54
513,821	10,54
514,082	-6,46
514,343	-0,46
514,603	-8,46
514,864	2,54
515,125	15,54
515,386	8,54
515,647	5,54
515,908	10,54
516,169	11,54
516,429	10,54
516,69	-16,46
516,951	0,54
517,212	9,54
517,473	-10,46
517,733	-5,46
517,994	2,54
518,255	-20,46
518,516	1,54
518,776	-10,46
519,037	-4,46
519,298	-5,46
519,559	21,54
519,819	-2,46
520,08	6,54
520,341	-12,46
520,601	-10,46
520,862	11,54
521,123	-0,46
521,383	0,54
521,644	-16,46
521,905	-9,46
522,165	18,54
522,426	-5,46
522,686	6,54
522,947	2,54
523,208	8,54
523,468	-15,46
523,729	0,54
523,989	25,54
524,25	5,54
524,51	10,54
524,771	5,54
525,032	-11,46
525,292	-13,46
525,553	4,54
525,813	-3,46
526,074	-16,46
526,334	2,54
526,595	-9,46
526,855	-21,46
527,116	-14,46
527,376	10,54
527,636	-8,46
527,897	23,54
528,157	-1,46
528,418	-6,46
528,678	-13,46
528,939	2,54
529,199	9,54
529,459	-13,46
529,72	2,54
529,98	8,54
530,24	11,54
530,501	-8,46
530,761	-2,46
531,022	5,54
531,282	-2,46
531,542	-13,46
531,803	-2,46
532,063	-22,46
532,323	-9,46
532,583	6,54
532,844	-1,46
533,104	-12,46
533,364	-15,46
533,624	-10,46
533,885	-26,46
534,145	-5,46
534,405	-4,46
534,665	-0,46
534,926	5,54
535,186	-3,46
535,446	-0,46
535,706	6,54
535,966	3,54
536,227	-0,46
536,487	-6,46
536,747	-16,46
537,007	-7,46
537,267	7,54
537,527	-3,46
537,787	-9,46
538,048	-11,46
538,308	-3,46
538,568	-0,46
538,828	-17,46
539,088	-6,46
539,348	-23,46
539,608	-5,46
539,868	25,54
540,128	-0,46
540,388	4,54
540,648	13,54
540,908	-25,46
541,168	-1,46
541,428	6,54
541,688	-4,46
541,948	-20,46
542,208	-13,46
542,468	-5,46
542,728	-6,46
542,988	10,54
543,248	6,54
543,508	13,54
543,768	-1,46
544,028	-5,46
544,288	-0,46
544,548	18,54
544,807	-4,46
545,067	9,54
545,327	-16,46
545,587	3,54
545,847	30,54
546,107	3,54
546,367	6,54
546,626	-15,46
546,886	2,54
547,146	7,54
547,406	-2,46
547,666	-16,46
547,925	-13,46
548,185	3,54
548,445	6,54
548,705	8,54
548,965	-4,46
549,224	-12,46
549,484	14,54
549,744	28,54
550,003	24,54
550,263	10,54
550,523	-0,46
550,783	3,54
551,042	-8,46
551,302	2,54
551,562	4,54
551,821	-1,46
552,081	19,54
552,341	11,54
552,6	2,54
552,86	9,54
553,119	1,54
553,379	-7,46
553,639	2,54
553,898	13,54
554,158	9,54
554,417	23,54
554,677	17,54
554,936	15,54
555,196	-5,46
555,456	7,54
555,715	2,54
555,975	-13,46
556,234	-2,46
556,494	-29,46
556,753	-16,46
557,013	0,54
557,272	29,54
557,532	-7,46
557,791	-3,46
558,051	5,54
558,31	13,54
558,569	2,54
558,829	2,54
559,088	18,54
559,348	7,54
559,607	7,54
559,866	4,54
560,126	-10,46
560,385	-8,46
560,645	-6,46
560,904	-1,46
561,163	20,54
561,423	0,54
561,682	11,54
561,941	9,54
562,201	7,54
562,46	4,54
562,719	3,54
562,979	0,54
563,238	5,54
563,497	5,54
563,756	-9,46
564,016	8,54
564,275	14,54
564,534	6,54
564,793	-1,46
565,053	7,54
565,312	0,54
565,571	-16,46
565,83	-3,46
566,089	-0,46
566,349	1,54
566,608	-4,46
566,867	5,54
567,126	-2,46
567,385	-15,46
567,644	2,54
567,903	-1,46
568,163	-11,46
568,422	10,54
568,681	-4,46
568,94	14,54
569,199	9,54
569,458	-16,46
569,717	1,54
569,976	-3,46
570,235	-7,46
570,494	17,54
570,753	6,54
571,012	0,54
571,271	14,54
571,53	3,54
571,789	2,54
572,048	-10,46
572,307	4,54
572,566	8,54
572,825	4,54
573,084	11,54
573,343	19,54
573,602	15,54
573,861	11,54
574,12	9,54
574,379	-13,46
574,638	7,54
574,897	-10,46
575,156	-3,46
575,414	3,54
575,673	2,54
575,932	6,54
576,191	-2,46
576,45	13,54
576,709	-4,46
576,968	9,54
577,226	-2,46
577,485	4,54
577,744	18,54
578,003	-5,46
578,262	-16,46
578,52	3,54
578,779	4,54
579,038	13,54
579,297	-1,46
579,555	8,54
579,814	1,54
580,073	-0,46
580,332	-7,46
580,59	-4,46
580,849	-0,46
581,108	7,54
581,366	-5,46
581,625	22,54
581,884	35,54
582,142	19,54
582,401	23,54
582,66	-0,46
582,918	-0,46
583,177	-19,46
583,436	-3,46
583,694	15,54
583,953	11,54
584,211	-19,46
584,47	8,54
584,728	18,54
584,987	23,54
585,246	28,54
585,504	11,54
585,763	7,54
586,021	8,54
586,28	9,54
586,538	-4,46
586,797	9,54
587,055	2,54
587,314	-0,46
587,572	13,54
587,831	27,54
588,089	22,54
588,348	8,54
588,606	17,54
588,864	-8,46
589,123	14,54
589,381	11,54
589,64	14,54
589,898	40,54
590,157	50,54
590,415	30,54
590,673	54,54
590,932	39,54
591,19	47,54
591,448	46,54
591,707	56,54
591,965	42,54
592,223	32,54
592,482	61,54
592,74	65,54
592,998	63,54
593,257	64,54
593,515	76,54
593,773	83,54
594,031	78,54
594,29	94,54
594,548	93,54
594,806	104,54
595,064	116,54
595,323	117,54
595,581	127,54
595,839	128,54
596,097	141,54
596,355	150,54
596,613	156,54
596,872	162,54
597,13	198,54
597,388	190,54
597,646	168,54
597,904	186,54
598,162	187,54
598,42	203,54
598,679	196,54
598,937	226,54
599,195	239,54
599,453	221,54
599,711	263,54
599,969	257,54
600,227	253,54
600,485	263,54
600,743	293,54
601,001	275,54
601,259	293,54
601,517	289,54
601,775	274,54
602,033	290,54
602,291	305,54
602,549	300,54
602,807	302,54
603,065	312,54
603,323	299,54
603,581	329,54
603,839	334,54
604,097	330,54
604,355	345,54
604,613	333,54
604,871	327,54
605,128	351,54
605,386	362,54
605,644	371,54
605,902	351,54
606,16	355,54
606,418	355,54
606,676	344,54
606,933	366,54
607,191	391,54
607,449	379,54
607,707	336,54
607,965	328,54
608,223	365,54
608,48	376,54
608,738	383,54
608,996	393,54
609,254	387,54
609,511	390,54
609,769	392,54
610,027	374,54
610,285	357,54
610,542	364,54
610,8	398,54
611,058	384,54
611,315	355,54
611,573	361,54
611,831	354,54
612,088	382,54
612,346	381,54
612,604	404,54
612,861	380,54
613,119	353,54
613,376	351,54
613,634	352,54
613,892	383,54
614,149	385,54
614,407	347,54
614,664	325,54
614,922	346,54
615,18	349,54
615,437	355,54
615,695	353,54
615,952	351,54
616,21	346,54
616,467	358,54
616,725	345,54
616,982	328,54
617,24	304,54
617,497	340,54
617,755	332,54
618,012	314,54
618,27	360,54
618,527	312,54
618,784	305,54
619,042	279,54
619,299	322,54
619,557	310,54
619,814	308,54
620,071	313,54
620,329	299,54
620,586	301,54
620,844	296,54
621,101	325,54
621,358	282,54
621,616	283,54
621,873	279,54
622,13	269,54
622,388	286,54
622,645	268,54
622,902	269,54
623,159	256,54
623,417	275,54
623,674	243,54
623,931	250,54
624,188	222,54
624,446	244,54
624,703	241,54
624,96	246,54
625,217	237,54
625,475	233,54
625,732	215,54
625,989	237,54
626,246	224,54
626,503	231,54
626,761	231,54
627,018	223,54
627,275	223,54
627,532	206,54
627,789	223,54
628,046	212,54
628,303	190,54
628,56	183,54
628,818	197,54
629,075	211,54
629,332	207,54
629,589	205,54
629,846	187,54
630,103	194,54
630,36	210,54
630,617	178,54
630,874	172,54
631,131	163,54
631,388	165,54
631,645	148,54
631,902	164,54
632,159	161,54
632,416	156,54
632,673	149,54
632,93	159,54
633,187	159,54
633,444	168,54
633,701	182,54
633,958	160,54
634,215	184,54
634,471	138,54
634,728	156,54
634,985	152,54
635,242	157,54
635,499	162,54
635,756	149,54
636,013	139,54
636,27	133,54
636,526	157,54
636,783	155,54
637,04	150,54
637,297	138,54
637,554	145,54
637,81	138,54
638,067	154,54
638,324	151,54
638,581	110,54
638,838	126,54
639,094	133,54
639,351	133,54
639,608	139,54
639,864	110,54
640,121	107,54
640,378	121,54
640,635	109,54
640,891	99,54
641,148	101,54
641,405	124,54
641,661	134,54
641,918	116,54
642,175	113,54
642,431	110,54
642,688	115,54
642,944	109,54
643,201	111,54
643,458	111,54
643,714	121,54
643,971	108,54
644,227	108,54
644,484	118,54
644,741	102,54
644,997	105,54
645,254	96,54
645,51	96,54
645,767	107,54
646,023	90,54
646,28	79,54
646,536	78,54
646,793	108,54
647,049	101,54
647,306	91,54
647,562	71,54
647,819	91,54
648,075	82,54
648,331	81,54
648,588	87,54
648,844	69,54
649,101	76,54
649,357	65,54
649,613	82,54
649,87	73,54
650,126	69,54
650,383	50,54
650,639	67,54
650,895	75,54
651,152	66,54
651,408	60,54
651,664	55,54
651,921	67,54
652,177	68,54
652,433	60,54
652,689	78,54
652,946	73,54
653,202	67,54
653,458	80,54
653,715	52,54
653,971	41,54
654,227	46,54
654,483	55,54
654,739	45,54
654,996	38,54
655,252	51,54
655,508	52,54
655,764	57,54
656,02	49,54
656,277	43,54
656,533	47,54
656,789	88,54
657,045	49,54
657,301	67,54
657,557	66,54
657,813	54,54
658,07	47,54
658,326	49,54
658,582	43,54
658,838	67,54
659,094	34,54
659,35	29,54
659,606	38,54
659,862	41,54
660,118	27,54
660,374	56,54
660,63	56,54
660,886	36,54
661,142	40,54
661,398	45,54
661,654	30,54
661,91	35,54
662,166	50,54
662,422	34,54
662,678	44,54
662,934	28,54
663,19	42,54
663,446	42,54
663,702	47,54
663,957	41,54
664,213	35,54
664,469	40,54
664,725	42,54
664,981	49,54
665,237	29,54
665,493	46,54
665,749	31,54
666,004	37,54
666,26	31,54
666,516	27,54
666,772	36,54
667,028	39,54
667,283	34,54
667,539	29,54
667,795	52,54
668,051	58,54
668,307	43,54
668,562	47,54
668,818	60,54
669,074	25,54
669,329	33,54
669,585	46,54
669,841	27,54
670,097	22,54
670,352	25,54
670,608	23,54
670,864	9,54
671,119	19,54
671,375	52,54
671,631	42,54
671,886	39,54
672,142	15,54
672,397	43,54
672,653	34,54
672,909	40,54
673,164	17,54
673,42	38,54
673,675	39,54
673,931	50,54
674,186	14,54
674,442	32,54
674,698	24,54
674,953	38,54
675,209	23,54
675,464	21,54
675,72	22,54
675,975	38,54
676,231	29,54
676,486	18,54
676,742	26,54
676,997	8,54
677,252	33,54
677,508	17,54
677,763	55,54
678,019	28,54
678,274	37,54
678,53	22,54
678,785	30,54
679,04	46,54
679,296	12,54
679,551	39,54
679,806	14,54
680,062	37,54
680,317	13,54
680,572	53,54
680,828	21,54
681,083	23,54
681,338	20,54
681,594	14,54
681,849	10,54
682,104	26,54
682,36	36,54
682,615	29,54
682,87	4,54
683,125	15,54
683,381	3,54
683,636	-9,46
683,891	3,54
684,146	36,54
684,401	21,54
684,657	34,54
684,912	27,54
685,167	25,54
685,422	10,54
685,677	9,54
685,932	-1,46
686,188	19,54
686,443	21,54
686,698	36,54
686,953	17,54
687,208	29,54
687,463	22,54
687,718	5,54
687,973	20,54
688,228	10,54
688,483	16,54
688,739	17,54
688,994	18,54
689,249	10,54
689,504	21,54
689,759	50,54
690,014	11,54
690,269	-1,46
690,524	9,54
690,779	11,54
691,034	11,54
691,289	-8,46
691,544	5,54
691,798	42,54
692,053	48,54
692,308	17,54
692,563	2,54
692,818	11,54
693,073	20,54
693,328	32,54
693,583	21,54
693,838	22,54
694,093	3,54
694,347	2,54
694,602	17,54
694,857	9,54
695,112	7,54
695,367	24,54
695,622	20,54
695,876	27,54
696,131	19,54
696,386	25,54
696,641	35,54
696,896	22,54
697,15	17,54
697,405	14,54
697,66	38,54
697,915	-5,46
698,169	15,54
698,424	14,54
698,679	13,54
698,933	6,54
699,188	17,54
699,443	7,54
699,698	9,54
699,952	13,54
700,207	6,54
700,461	36,54
700,716	-1,46
700,971	6,54
701,225	22,54
701,48	18,54
701,735	8,54
701,989	10,54
702,244	4,54
702,498	7,54
702,753	6,54
703,007	9,54
703,262	24,54
703,517	14,54
703,771	15,54
704,026	5,54
704,28	-7,46
704,535	20,54
704,789	29,54
705,044	10,54
705,298	9,54
705,553	26,54
705,807	26,54
706,062	10,54
706,316	22,54
706,57	16,54
706,825	22,54
707,079	39,54
707,334	21,54
707,588	12,54
707,842	6,54
708,097	0,54
708,351	-7,46
708,606	1,54
708,86	-2,46
709,114	11,54
709,369	11,54
709,623	11,54
709,877	19,54
710,132	10,54
710,386	13,54
710,64	18,54
710,895	3,54
711,149	9,54
711,403	8,54
711,657	19,54
711,912	-1,46
712,166	17,54
712,42	3,54
712,674	0,54
712,928	12,54
713,183	14,54
713,437	-0,46
713,691	14,54
713,945	7,54
714,199	10,54
714,454	10,54
714,708	1,54
714,962	-8,46
715,216	9,54
715,47	0,54
715,724	7,54
715,978	3,54
716,233	15,54
716,487	-1,46
716,741	1,54
716,995	10,54
717,249	6,54
717,503	11,54
717,757	-2,46
718,011	-1,46
718,265	6,54
718,519	-3,46
718,773	4,54
719,027	18,54
719,281	6,54
719,535	7,54
719,789	2,54
720,043	7,54
720,297	26,54
720,551	-3,46
720,805	18,54
721,059	23,54
721,313	-5,46
721,567	13,54
721,821	0,54
722,074	2,54
722,328	-5,46
722,582	13,54
722,836	11,54
723,09	0,54
723,344	6,54
723,598	19,54
723,851	13,54
724,105	19,54
724,359	12,54
724,613	45,54
724,867	21,54
725,121	9,54
725,374	25,54
725,628	12,54
725,882	3,54
726,136	19,54
726,389	16,54
726,643	5,54
726,897	8,54
727,151	-0,46
727,404	-1,46
727,658	9,54
727,912	14,54
728,165	9,54
728,419	10,54
728,673	-5,46
728,926	-0,46
729,18	15,54
729,434	6,54
729,687	17,54
729,941	14,54
730,195	9,54
730,448	-10,46
730,702	4,54
730,955	-2,46
731,209	13,54
731,462	20,54
731,716	12,54
731,97	6,54
732,223	21,54
732,477	7,54
732,73	22,54
732,984	-2,46
733,237	7,54
733,491	30,54
733,744	-0,46
733,998	-4,46
734,251	9,54
734,505	27,54
734,758	17,54
735,012	-1,46
735,265	19,54
735,518	11,54
735,772	12,54
736,025	-2,46
736,279	-3,46
736,532	2,54
736,785	19,54
737,039	24,54
737,292	28,54
737,546	2,54
737,799	7,54
738,052	5,54
738,306	2,54
738,559	0,54
738,812	6,54
739,066	6,54
739,319	-13,46
739,572	5,54
739,825	8,54
740,079	9,54
740,332	12,54
740,585	9,54
740,838	0,54
741,092	6,54
741,345	0,54
741,598	0,54
741,851	2,54
742,104	15,54
742,358	9,54
742,611	0,54
742,864	31,54
743,117	-4,46
743,37	22,54
743,623	0,54
743,877	13,54
744,13	5,54
744,383	19,54
744,636	-1,46
744,889	1,54
745,142	2,54
745,395	22,54
745,648	-18,46
745,901	3,54
746,154	28,54
746,408	10,54
746,661	8,54
746,914	-11,46
747,167	-6,46
747,42	7,54
747,673	5,54
747,926	10,54
748,179	11,54
748,432	2,54
748,685	8,54
748,938	59,54
749,19	22,54
749,443	9,54
749,696	3,54
749,949	37,54
750,202	13,54
750,455	3,54
750,708	13,54
750,961	8,54
751,214	78,54
751,467	22,54
751,719	8,54
751,972	-1,46
752,225	29,54
752,478	15,54
752,731	7,54
752,984	46,54
753,236	10,54
753,489	12,54
753,742	1,54
753,995	-1,46
754,248	-6,46
754,5	-8,46
754,753	3,54
755,006	18,54
755,259	2,54
755,511	14,54
755,764	15,54
756,017	-0,46
756,269	4,54
756,522	7,54
756,775	25,54
757,027	7,54
757,28	-5,46
757,533	5,54
757,785	-16,46
758,038	-3,46
758,291	-2,46
758,543	-2,46
758,796	11,54
759,049	-17,46
759,301	-2,46
759,554	14,54
759,806	15,54
760,059	9,54
760,311	19,54
760,564	-3,46
760,817	5,54
761,069	-19,46
761,322	4,54
761,574	-8,46
761,827	-0,46
762,079	-8,46
762,332	7,54
762,584	9,54
762,837	14,54
763,089	1,54
763,341	2,54
763,594	-3,46
763,846	5,54
764,099	7,54
764,351	19,54
764,604	-1,46
764,856	4,54
765,108	-12,46
765,361	-4,46
765,613	3,54
765,865	10,54
766,118	17,54
766,37	30,54
766,623	-7,46
766,875	-2,46
767,127	2,54
767,379	7,54
767,632	7,54
767,884	-9,46
768,136	5,54
768,389	9,54
768,641	6,54
768,893	10,54
769,145	11,54
769,398	15,54
769,65	21,54
769,902	7,54
770,154	9,54
770,406	13,54
770,659	0,54
770,911	10,54
771,163	21,54
771,415	18,54
771,667	56,54
771,919	0,54
772,172	-4,46
772,424	-6,46
772,676	7,54
772,928	7,54
773,18	3,54
773,432	9,54
773,684	-0,46
773,936	12,54
774,188	1,54
774,44	-15,46
774,693	5,54
774,945	-4,46
775,197	-12,46
775,449	8,54
775,701	-1,46
775,953	-8,46
776,205	-5,46
776,457	-0,46
776,709	11,54
776,961	-2,46
777,213	10,54
777,464	15,54
777,716	17,54
777,968	-0,46
778,22	-9,46
778,472	15,54
778,724	13,54
778,976	1,54
779,228	17,54
779,48	5,54
779,732	15,54
779,984	13,54
780,235	11,54
780,487	3,54
780,739	21,54
780,991	-3,46
781,243	-8,46
781,494	-5,46
781,746	9,54
781,998	-9,46
782,25	-16,46
782,502	-2,46
782,753	11,54
783,005	-1,46
783,257	-5,46
783,509	11,54
783,76	-14,46
784,012	25,54
784,264	-4,46
784,515	-1,46
784,767	8,54
785,019	4,54
785,271	7,54
785,522	-11,46
785,774	1,54
786,026	-17,46
786,277	1,54
786,529	-3,46
786,78	-8,46
787,032	5,54
787,284	-2,46
787,535	7,54
787,787	-0,46
788,038	-2,46
788,29	-20,46
788,541	9,54
788,793	-11,46
789,045	0,54
789,296	9,54
789,548	4,54
789,799	-16,46
790,051	14,54
790,302	-0,46
790,554	-8,46
790,805	-1,46
791,057	28,54
791,308	-7,46
791,559	-1,46
791,811	-5,46
792,062	18,54
792,314	16,54
792,565	-3,46
792,817	6,54
793,068	-0,46
793,319	-10,46
793,571	0,54
793,822	-0,46
794,073	4,54
794,325	0,54
794,576	15,54
794,827	3,54
795,079	-9,46
795,33	-3,46
795,581	8,54
795,833	-9,46
796,084	20,54
796,335	3,54
796,587	-1,46
796,838	9,54
797,089	13,54
797,34	-2,46
797,592	-13,46
797,843	7,54
798,094	-11,46
798,345	6,54
798,596	-1,46
798,848	14,54
799,099	-4,46
799,35	3,54
799,601	24,54
799,852	14,54
800,103	-11,46
800,355	5,54
800,606	85,54
800,857	13,54
801,108	5,54
801,359	10,54
801,61	-9,46
801,861	-26,46
802,112	-2,46
802,363	-13,46
802,614	7,54
802,865	3,54
803,116	17,54
803,367	-9,46
803,618	11,54
803,869	10,54
804,12	-9,46
804,371	6,54
804,622	-1,46
804,873	5,54
805,124	-5,46
805,375	-6,46
805,626	-2,46
805,877	-5,46
806,128	4,54
806,379	1,54
806,63	-3,46
806,881	-1,46
807,132	-3,46
807,383	-12,46
807,634	-9,46
807,884	-1,46
808,135	2,54
808,386	5,54
808,637	5,54
808,888	9,54
809,139	-17,46
809,389	3,54
809,64	13,54
809,891	1,54
810,142	-1,46
810,393	-10,46
810,643	-4,46
810,894	6,54
811,145	-16,46
811,396	-5,46
811,646	1,54
811,897	-12,46
812,148	18,54
812,398	5,54
812,649	12,54
812,9	6,54
813,151	18,54
813,401	-2,46
813,652	38,54
813,902	34,54
814,153	-3,46
814,404	14,54
814,654	6,54
814,905	14,54
815,156	16,54
815,406	0,54
815,657	6,54
815,907	6,54
816,158	-13,46
816,408	-4,46
816,659	-4,46
816,91	7,54
817,16	-2,46
817,411	2,54
817,661	0,54
817,912	3,54
818,162	-2,46
818,413	0,54
818,663	-13,46
818,914	-9,46
819,164	-9,46
819,414	-15,46
819,665	0,54
819,915	-0,46
820,166	3,54
820,416	-10,46
820,667	6,54
820,917	5,54
821,167	1,54
821,418	5,54
821,668	-10,46
821,918	8,54
822,169	-13,46
822,419	3,54
822,67	-13,46
822,92	-15,46
823,17	-5,46
823,42	13,54
823,671	7,54
823,921	-25,46
824,171	-1,46
824,422	-20,46
824,672	-9,46
824,922	9,54
825,172	-4,46
825,423	-0,46
825,673	0,54
825,923	-2,46
826,173	-2,46
826,423	-4,46
826,674	-12,46
826,924	-9,46
827,174	-7,46
827,424	11,54
827,674	-6,46
827,924	12,54
828,175	6,54
828,425	-16,46
828,675	-7,46
828,925	-6,46
829,175	18,54
829,425	1,54
829,675	3,54
829,925	-7,46
830,175	0,54
830,425	-15,46
830,675	-8,46
830,925	9,54
831,175	23,54
831,425	14,54
831,676	-18,46
831,926	-2,46
832,175	-23,46
832,425	-8,46
832,675	-4,46
832,925	27,54
833,175	-2,46
833,425	-21,46
833,675	-5,46
833,925	3,54
834,175	9,54
834,425	7,54
834,675	8,54
834,925	-4,46
835,175	5,54
835,425	-13,46
835,674	-20,46
835,924	-2,46
836,174	-2,46
836,424	-19,46
836,674	-9,46
836,924	3,54
837,173	6,54
837,423	1,54
837,673	3,54
837,923	-21,46
838,173	-18,46
838,422	-1,46
838,672	15,54
838,922	2,54
839,172	4,54
839,421	10,54
839,671	-10,46
839,921	-22,46
840,17	-4,46
840,42	-2,46
840,67	-4,46
840,919	-9,46
841,169	-7,46
841,419	12,54
841,668	-4,46
841,918	-2,46
842,168	-11,46
842,417	-10,46
842,667	4,54
842,916	-10,46
843,166	-3,46
843,416	4,54
843,665	-8,46
843,915	6,54
844,164	15,54
844,414	17,54
844,663	-8,46
844,913	6,54
845,162	-2,46
845,412	14,54
845,662	-11,46
845,911	-0,46
846,16	-6,46
846,41	-7,46
846,659	0,54
846,909	-9,46
847,158	2,54
847,408	-0,46
847,657	-0,46
847,907	-0,46
848,156	-18,46
848,405	7,54
848,655	-1,46
848,904	-8,46
849,154	-1,46
849,403	4,54
849,652	-1,46
849,902	-12,46
850,151	-26,46
850,4	-17,46
850,65	-8,46
850,899	-2,46
851,148	5,54
851,398	-2,46
851,647	42,54
851,896	0,54
852,145	6,54
852,395	-2,46
852,644	-13,46
852,893	6,54
853,142	22,54
853,392	-17,46
853,641	2,54
853,89	-0,46
854,139	13,54
854,388	-9,46
854,637	-0,46
854,887	-4,46
855,136	2,54
855,385	1,54
855,634	-4,46
855,883	26,54
856,132	7,54
856,381	-9,46
856,631	4,54
856,88	-2,46
857,129	-10,46
857,378	-9,46
857,627	-19,46
857,876	-16,46
858,125	-8,46
858,374	1,54
858,623	-4,46
858,872	1,54
859,121	13,54
859,37	3,54
859,619	6,54
859,868	11,54
860,117	-18,46
860,366	-23,46
860,615	-2,46
860,864	9,54
861,113	-3,46
861,362	-3,46
861,611	-18,46
861,86	-12,46
862,108	-7,46
862,357	3,54
862,606	-3,46
862,855	0,54
863,104	-25,46
863,353	-12,46
863,602	-7,46
863,851	61,54
864,099	10,54
864,348	-1,46
864,597	5,54
864,846	-3,46
865,095	6,54
865,343	-5,46
865,592	-16,46
865,841	-9,46
866,09	5,54
866,338	2,54
866,587	-10,46
866,836	-4,46
867,085	-15,46
867,333	-15,46
867,582	-12,46
867,831	-9,46
868,079	5,54
868,328	5,54
868,577	-3,46
868,825	-0,46
869,074	-0,46
869,323	-7,46
869,571	-9,46
869,82	-10,46
870,068	-13,46
870,317	-5,46
870,566	-2,46
870,814	-2,46
871,063	-12,46
871,311	2,54
871,56	-1,46
871,808	6,54
872,057	9,54
872,306	5,54
872,554	-11,46
872,803	-16,46
873,051	-1,46
873,3	-8,46
873,548	-11,46
873,797	-7,46
874,045	-6,46
874,293	11,54
874,542	-8,46
874,79	-11,46
875,039	-14,46
875,287	-9,46
875,536	-20,46
875,784	-14,46
876,032	10,54
876,281	9,54
876,529	5,54
876,777	-1,46
877,026	-10,46
877,274	-2,46
877,523	-5,46
877,771	0,54
878,019	-19,46
878,267	-2,46
878,516	-7,46
878,764	4,54
879,012	14,54
879,261	-6,46
879,509	2,54
879,757	-2,46
880,005	1,54
880,254	-8,46
880,502	-2,46
880,75	-11,46
880,998	3,54
881,246	-5,46
881,495	-17,46
881,743	-3,46
881,991	0,54
882,239	-0,46
882,487	0,54
882,735	0,54
882,984	-17,46
883,232	-9,46
883,48	3,54
883,728	-13,46
883,976	-17,46
884,224	-24,46
884,472	-4,46
884,72	-1,46
884,968	8,54
885,216	6,54
885,464	-21,46
885,712	-14,46
885,96	-1,46
886,208	-0,46
886,457	-18,46
886,704	6,54
886,952	-5,46
887,2	-5,46
887,448	-9,46
887,696	-4,46
887,944	11,54
888,192	5,54
888,44	3,54
888,688	-4,46
888,936	9,54
889,184	11,54
889,432	10,54
889,68	-4,46
889,928	-9,46
890,175	-8,46
890,423	2,54
890,671	-19,46
890,919	19,54
891,167	0,54
891,415	-6,46
891,663	-13,46
891,91	-0,46
892,158	-7,46
892,406	-13,46
892,654	-24,46
892,901	0,54
893,149	1,54
893,397	-17,46
893,645	-18,46
893,892	-8,46
894,14	-7,46
894,388	-10,46
894,636	-1,46
894,883	-23,46
895,131	-2,46
895,379	-21,46
895,626	0,54
895,874	1,54
896,122	2,54
896,369	2,54
896,617	-18,46
896,864	11,54
897,112	8,54
897,36	-3,46
897,607	6,54
897,855	-0,46
898,102	-2,46
898,35	-8,46
898,598	-0,46
898,845	-6,46
899,093	1,54
899,34	-6,46
899,588	-0,46
899,835	-11,46
900,083	15,54
900,33	-5,46
900,578	11,54
900,825	14,54
901,073	8,54
901,32	-6,46
901,568	-17,46
901,815	-5,46
902,062	-1,46
902,31	2,54
902,557	9,54
902,805	89,54
903,052	6,54
903,299	-15,46
903,547	-13,46
903,794	4,54
904,042	-21,46
904,289	-3,46
904,536	8,54
904,784	-10,46
905,031	-8,46
905,278	13,54
905,525	10,54
905,773	-10,46
906,02	-1,46
906,267	-16,46
906,515	13,54
906,762	0,54
907,009	-4,46
907,256	-6,46
907,504	-0,46
907,751	9,54
907,998	-1,46
908,245	5,54
908,492	-2,46
908,74	6,54
908,987	18,54
909,234	-11,46
909,481	-20,46
909,728	-8,46
909,975	-16,46
910,222	7,54
910,47	-12,46
910,717	-2,46
910,964	-3,46
911,211	-1,46
911,458	-7,46
911,705	22,54
911,952	4,54
912,199	-4,46
912,446	-3,46
912,693	4,54
912,94	-19,46
913,187	-6,46
913,434	-12,46
913,681	-9,46
913,928	-7,46
914,175	-23,46
914,422	-16,46
914,669	0,54
914,916	-1,46
915,163	3,54
915,41	-12,46
915,657	-28,46
915,904	-4,46
916,151	-4,46
916,398	4,54
916,644	-4,46
916,891	-5,46
917,138	-6,46
917,385	4,54
917,632	-17,46
917,879	-2,46
918,126	1,54
918,372	-5,46
918,619	-1,46
918,866	9,54
919,113	2,54
919,36	-17,46
919,606	-1,46
919,853	-10,46
920,1	-13,46
920,347	-11,46
920,593	-9,46
920,84	1,54
921,087	-3,46
921,334	-12,46
921,58	-5,46
921,827	-14,46
922,074	-16,46
922,32	-6,46
922,567	-7,46
922,814	-14,46
923,06	-6,46
923,307	8,54
923,554	13,54
923,8	2,54
924,047	2,54
924,293	-5,46
924,54	-13,46
924,787	-13,46
925,033	-1,46
925,28	-10,46
925,526	15,54
925,773	18,54
926,019	4,54
926,266	-1,46
926,512	-0,46
926,759	5,54
927,005	6,54
927,252	15,54
927,498	3,54
927,745	-19,46
927,991	-9,46
928,238	-7,46
928,484	1,54
928,731	-10,46
928,977	4,54
929,223	10,54
929,47	-6,46
929,716	-14,46
929,963	-23,46
930,209	-9,46
930,455	0,54
930,702	-3,46
930,948	2,54
931,194	-9,46
931,441	1,54
931,687	-21,46
931,933	-6,46
932,18	-12,46
932,426	-9,46
932,672	4,54
932,919	-2,46
933,165	3,54
933,411	15,54
933,657	7,54
933,904	-5,46
934,15	-13,46
934,396	-17,46
934,642	-8,46
934,889	-13,46
935,135	-8,46
935,381	11,54
935,627	-1,46
935,873	-6,46
936,119	10,54
936,366	3,54
936,612	1,54
936,858	9,54
937,104	5,54
937,35	21,54
937,596	7,54
937,842	-20,46
938,088	-1,46
938,334	-0,46
938,58	12,54
938,827	-1,46
939,073	-0,46
939,319	-18,46
939,565	-3,46
939,811	5,54
940,057	-13,46
940,303	-3,46
940,549	1,54
940,795	4,54
941,041	-11,46
941,287	5,54
941,533	10,54
941,778	-11,46
942,024	-20,46
942,27	-18,46
942,516	-12,46
942,762	1,54
943,008	-8,46
943,254	1,54
943,5	-2,46
943,746	7,54
943,992	1,54
944,237	0,54
944,483	-15,46
944,729	2,54
944,975	-7,46
945,221	0,54
945,467	-12,46
945,712	-8,46
945,958	-2,46
946,204	5,54
946,45	-8,46
946,695	-1,46
946,941	2,54
947,187	11,54
947,433	-7,46
947,678	2,54
947,924	-21,46
948,17	-10,46
948,415	2,54
948,661	5,54
948,907	4,54
949,153	-9,46
949,398	11,54
949,644	-2,46
949,889	-5,46
950,135	3,54
950,381	-19,46
950,626	4,54
950,872	13,54
951,118	10,54
951,363	2,54
951,609	-0,46
951,854	-16,46
952,1	-16,46
952,345	-12,46
952,591	-4,46
952,836	-0,46
953,082	-17,46
953,327	-6,46
953,573	-16,46
953,818	0,54
954,064	-4,46
954,309	15,54
954,555	-4,46
954,8	-4,46
955,046	-13,46
955,291	-9,46
955,537	-28,46
955,782	-28,46
956,027	1,54
956,273	10,54
956,518	12,54
956,764	7,54
957,009	-4,46
957,254	5,54
957,5	0,54
957,745	-2,46
957,99	9,54
958,236	-10,46
958,481	-9,46
958,726	18,54
958,972	-12,46
959,217	-26,46
959,462	8,54
959,707	-10,46
959,953	-2,46
960,198	3,54
960,443	-5,46
960,688	-10,46
960,934	31,54
961,179	8,54
961,424	-2,46
961,669	-17,46
961,914	-16,46
962,16	-6,46
962,405	-7,46
962,65	0,54
962,895	0,54
963,14	11,54
963,385	-8,46
963,63	4,54
963,876	11,54
964,121	9,54
964,366	-14,46
964,611	-1,46
964,856	-7,46
965,101	-19,46
965,346	4,54
965,591	-14,46
965,836	2,54
966,081	-24,46
966,326	-9,46
966,571	8,54
966,816	3,54
967,061	-6,46
967,306	2,54
967,551	-4,46
967,796	-2,46
968,041	-3,46
968,286	12,54
968,531	-6,46
968,776	-17,46
969,021	-26,46
969,266	23,54
969,511	5,54
969,755	-10,46
970	-2,46
970,245	-1,46
970,49	24,54
970,735	29,54
970,98	2,54
971,225	-5,46
971,469	-1,46
971,714	-10,46
971,959	8,54
972,204	-10,46
972,449	-2,46
972,693	-7,46
972,938	-2,46
973,183	2,54
973,428	-10,46
973,672	-0,46
973,917	3,54
974,162	-2,46
974,407	4,54
974,651	-3,46
974,896	5,54
975,141	5,54
975,385	6,54
975,63	-7,46
975,875	-14,46
976,119	40,54
976,364	7,54
976,608	3,54
976,853	-13,46
977,098	-5,46
977,342	-8,46
977,587	10,54
977,831	6,54
978,076	7,54
978,321	-15,46
978,565	-10,46
978,81	-1,46
979,054	10,54
979,299	-13,46
979,543	-1,46
979,788	12,54
980,032	-1,46
980,277	9,54
980,521	1,54
980,766	2,54
981,01	6,54
981,255	-12,46
981,499	9,54
981,743	10,54
981,988	-22,46
982,232	-4,46
982,477	2,54
982,721	-1,46
982,965	-5,46
983,21	1,54
983,454	-18,46
983,699	-5,46
983,943	5,54
984,187	4,54
984,432	-2,46
984,676	15,54
984,92	17,54
985,165	11,54
985,409	14,54
985,653	2,54
985,897	12,54
986,142	12,54
986,386	23,54
986,63	9,54
986,874	-21,46
987,119	-12,46
987,363	-13,46
987,607	-7,46
987,851	2,54
988,095	21,54
988,34	-12,46
988,584	-1,46
988,828	-8,46
989,072	-3,46
989,316	-9,46
989,56	6,54
989,804	-5,46
990,049	-5,46
990,293	-1,46
990,537	-0,46
990,781	-1,46
991,025	-30,46
991,269	4,54
991,513	-9,46
991,757	0,54
992,001	-27,46
992,245	-14,46
992,489	-0,46
992,733	-4,46
992,977	-7,46
993,221	-5,46
993,465	-26,46
993,709	-20,46
993,953	-3,46
994,197	-9,46
994,441	4,54
994,685	-13,46
994,929	18,54
995,173	6,54
995,417	6,54
995,661	2,54
995,904	-12,46
996,148	4,54
996,392	-11,46
996,636	-32,46
996,88	-5,46
997,124	12,54
997,368	6,54
997,611	14,54
997,855	-6,46
998,099	-8,46
998,343	-11,46
998,587	3,54
998,83	7,54
999,074	1,54
999,318	11,54
999,562	-13,46
999,805	-2,46
1000,049	-18,46
1000,293	2,54
1000,537	2,54
1000,78	7,54
1001,024	6,54
1001,268	-12,46
1001,511	0,54
1001,755	-7,46
1001,999	-17,46
1002,242	-13,46
1002,486	2,54
1002,73	6,54
1002,973	16,54
1003,217	10,54
1003,46	2,54
1003,704	-8,46
1003,948	0,54
1004,191	10,54
1004,435	-3,46
1004,678	8,54
1004,922	5,54
1005,165	-1,46
1005,409	13,54
1005,652	-6,46
1005,896	7,54
1006,139	2,54
1006,383	17,54
1006,626	-1,46
1006,87	-3,46
1007,113	-10,46
1007,357	-5,46
1007,6	-5,46
1007,844	5,54
1008,087	2,54
1008,33	-17,46
1008,574	-9,46
1008,817	-4,46
1009,061	-10,46
1009,304	-9,46
1009,547	6,54
1009,791	13,54
1010,034	8,54
1010,277	13,54
1010,521	1,54
1010,764	-5,46
1011,007	-7,46
1011,251	-8,46
1011,494	-23,46
1011,737	-3,46
1011,98	-10,46
1012,224	7,54
1012,467	-25,46
1012,71	4,54
1012,953	-7,46
1013,197	-3,46
1013,44	-14,46
1013,683	-14,46
1013,926	2,54
1014,169	-7,46
1014,413	-12,46
1014,656	-8,46
1014,899	-26,46
1015,142	6,54
1015,385	14,54
1015,628	24,54
1015,871	-10,46
1016,115	-9,46
1016,358	6,54
1016,601	4,54
1016,844	9,54
1017,087	-3,46
1017,33	-8,46
1017,573	-8,46
1017,816	-12,46
1018,059	3,54
1018,302	-4,46
1018,545	-6,46
1018,788	-18,46
1019,031	0,54
1019,274	-13,46
1019,517	-14,46
1019,76	-5,46
1020,003	-18,46
1020,246	-16,46
1020,489	-11,46
1020,732	-12,46
1020,975	-4,46
1021,218	-5,46
1021,461	1,54
1021,703	-0,46
1021,946	-4,46
1022,189	-1,46
1022,432	-7,46
1022,675	18,54
1022,918	9,54
1023,161	-11,46
1023,403	14,54
1023,646	-7,46
1023,889	-26,46
1024,132	-3,46
1024,375	-7,46
1024,617	-0,46
1024,86	-6,46
1025,103	-1,46
1025,346	-23,46
1025,588	-3,46
1025,831	-8,46
1026,074	-9,46
1026,317	-1,46
1026,559	2,54
1026,802	8,54
1027,045	-9,46
1027,287	1,54
1027,53	-0,46
1027,773	-0,46
1028,015	-1,46
1028,258	-4,46
1028,501	-16,46
1028,743	2,54
1028,986	-14,46
1029,228	17,54
1029,471	-10,46
1029,714	-13,46
1029,956	-4,46
1030,199	6,54
1030,441	-3,46
1030,684	-2,46
1030,926	-8,46
1031,169	-12,46
1031,411	-0,46
1031,654	-2,46
1031,896	-5,46
1032,139	-2,46
1032,381	-7,46
1032,624	-2,46
1032,866	-1,46
1033,109	9,54
1033,351	0,54
1033,594	-2,46
1033,836	-16,46
1034,079	-10,46
1034,321	-11,46
1034,563	-13,46
1034,806	-2,46
1035,048	-10,46
1035,29	-14,46
1035,533	-6,46
1035,775	-0,46
1036,018	7,54
1036,26	-7,46
1036,502	37,54
1036,744	-2,46
1036,987	-22,46
1037,229	-8,46
1037,471	-29,46
1037,714	12,54
1037,956	-4,46
1038,198	-9,46
1038,44	-13,46
1038,683	13,54
1038,925	7,54
1039,167	0,54
1039,409	-9,46
1039,651	-10,46
1039,894	1,54
1040,136	-7,46
1040,378	7,54
1040,62	21,54
1040,862	6,54
1041,104	-8,46
1041,347	-6,46
1041,589	-8,46
1041,831	13,54
1042,073	6,54
1042,315	-0,46
1042,557	-3,46
1042,799	8,54
1043,041	19,54
1043,283	-5,46
1043,525	-15,46
1043,767	4,54
1044,009	-8,46
1044,251	-22,46
1044,493	-17,46
1044,735	-11,46
1044,977	-7,46
1045,219	-10,46
1045,461	-29,46
1045,703	9,54
1045,945	1,54
1046,187	-8,46
1046,429	-8,46
1046,671	-17,46
1046,913	2,54
1047,155	-10,46
1047,397	4,54
1047,639	6,54
1047,881	13,54
1048,122	-9,46
1048,364	-9,46
1048,606	7,54
1048,848	-4,46
1049,09	-4,46
1049,332	-5,46
1049,573	-10,46
1049,815	1,54
1050,057	-8,46
1050,299	-14,46
1050,541	2,54
1050,782	-5,46
1051,024	5,54
1051,266	7,54
1051,508	10,54
1051,749	-2,46
1051,991	2,54
1052,233	10,54
1052,474	-16,46
1052,716	-13,46
1052,958	-27,46
1053,199	10,54
1053,441	-0,46
1053,683	-12,46
1053,924	-9,46
1054,166	5,54
1054,408	-12,46
1054,649	-1,46
1054,891	-13,46
1055,132	5,54
1055,374	-10,46
1055,616	-31,46
1055,857	-15,46
1056,099	-18,46
1056,34	1,54
1056,582	-28,46
1056,823	-3,46
1057,065	2,54
1057,306	-4,46
1057,548	-11,46
1057,789	-1,46
1058,031	4,54
1058,272	6,54
1058,514	18,54
1058,755	-5,46
1058,997	2,54
1059,238	5,54
1059,479	-6,46
1059,721	-6,46
1059,962	-7,46
1060,204	1,54
1060,445	-28,46
1060,686	-16,46
1060,928	-8,46
1061,169	-2,46
1061,41	-9,46
1061,652	5,54
1061,893	-25,46
1062,134	15,54
1062,376	-3,46
1062,617	3,54
1062,858	-10,46
1063,1	-1,46
1063,341	-0,46
1063,582	-13,46
1063,823	10,54
1064,065	-17,46
1064,306	-10,46
1064,547	-12,46
1064,788	-7,46
1065,029	-11,46
1065,271	-7,46
1065,512	-10,46
1065,753	-12,46
1065,994	21,54
1066,235	-1,46
1066,476	-2,46
1066,718	-1,46
1066,959	14,54
1067,2	-5,46
1067,441	24,54
1067,682	-6,46
1067,923	11,54
1068,164	-7,46
1068,405	-13,46
1068,646	-18,46
1068,887	3,54
1069,128	-2,46
1069,369	-1,46
1069,61	-12,46
1069,851	2,54
1070,092	5,54
1070,333	-18,46
1070,574	-23,46
1070,815	-18,46
1071,056	-13,46
1071,297	-11,46
1071,538	-5,46
1071,779	2,54
1072,02	0,54
1072,261	24,54
1072,502	-18,46
1072,743	-15,46
1072,984	-10,46
1073,225	-19,46
1073,466	-14,46
1073,706	1,54
1073,947	-8,46
1074,188	7,54
1074,429	7,54
1074,67	9,54
1074,911	-10,46
1075,151	-10,46
1075,392	-17,46
1075,633	-4,46
1075,874	-4,46
1076,114	-13,46
1076,355	8,54
1076,596	-11,46
1076,837	4,54
1077,077	-8,46
1077,318	-12,46
1077,559	6,54
1077,8	2,54
1078,04	-10,46
1078,281	-8,46
1078,522	-8,46
1078,762	-24,46
1079,003	-5,46
1079,244	-6,46
1079,484	-2,46
1079,725	2,54
1079,965	-4,46
1080,206	-1,46
1080,447	-2,46
1080,687	-19,46
1080,928	-4,46
1081,168	-4,46
1081,409	5,54
1081,649	-22,46
1081,89	-27,46
1082,131	-7,46
1082,371	-8,46
1082,612	6,54
1082,852	0,54
1083,093	-2,46
1083,333	-5,46
1083,573	-10,46
1083,814	7,54
1084,054	5,54
1084,295	38,54
1084,535	17,54
1084,776	1,54
1085,016	9,54
1085,257	-2,46
1085,497	25,54
1085,737	14,54
1085,978	-1,46
1086,218	23,54
1086,458	-9,46
1086,699	-4,46
1086,939	-12,46
1087,179	-4,46
1087,42	2,54
1087,66	-4,46
1087,9	-4,46
1088,141	-4,46
1088,381	-7,46
1088,621	-6,46
1088,861	-1,46
1089,102	9,54
1089,342	-7,46
1089,582	-22,46
1089,822	-0,46
1090,063	-29,46
1090,303	6,54
1090,543	-5,46
1090,783	-10,46
1091,023	-17,46
1091,263	-13,46
1091,504	-11,46
1091,744	-15,46
1091,984	-13,46
1092,224	-5,46
1092,464	2,54
1092,704	-17,46
1092,944	-1,46
1093,184	-5,46
1093,425	5,54
1093,665	-12,46
1093,905	1,54
1094,145	-16,46
1094,385	2,54
1094,625	-7,46
1094,865	1,54
1095,105	1,54
1095,345	-6,46
1095,585	-11,46
1095,825	-9,46
1096,065	8,54
1096,305	-16,46
1096,545	1,54
1096,785	-2,46
1097,025	-6,46
1097,265	-12,46
1097,504	-2,46
1097,744	6,54
1097,984	15,54
1098,224	-14,46
1098,464	-1,46
1098,704	19,54
1098,944	6,54
1099,184	-2,46
1099,423	-0,46
1099,663	-4,46
1099,903	-2,46
1100,143	-14,46
1100,383	-13,46
1100,622	-14,46
1100,862	-2,46
1101,102	12,54
1101,342	-3,46
1101,582	3,54
1101,821	-5,46
1102,061	-14,46
1102,301	5,54
1102,54	14,54
1102,78	-2,46
1103,02	-13,46
1103,26	-26,46
1103,499	-4,46
1103,739	10,54
1103,979	6,54
1104,218	0,54
1104,458	-8,46
1104,697	-7,46
1104,937	-2,46
1105,177	-0,46
1105,416	-16,46
1105,656	-25,46
1105,896	-18,46
1106,135	-12,46
1106,375	0,54
1106,614	8,54
1106,854	4,54
1107,093	-4,46
1107,333	-16,46
1107,572	-7,46
1107,812	-6,46
1108,051	-1,46
1108,291	-0,46
1108,53	-4,46
1108,77	3,54
1109,009	4,54
1109,249	10,54
1109,488	-13,46
1109,728	-22,46
1109,967	-10,46
1110,206	-12,46
1110,446	16,54
1110,685	-2,46
1110,925	11,54
1111,164	6,54
1111,403	9,54
1111,643	5,54
1111,882	-11,46
1112,121	-12,46
1112,361	13,54
1112,6	-10,46
1112,839	2,54
1113,079	-5,46
1113,318	6,54
1113,557	4,54
1113,796	16,54
1114,036	2,54
1114,275	-1,46
1114,514	-0,46
1114,753	9,54
1114,993	23,54
1115,232	-17,46
1115,471	-13,46
1115,71	-5,46
1115,949	-0,46
1116,188	-0,46
1116,428	8,54
1116,667	-3,46
1116,906	-9,46
1117,145	16,54
1117,384	5,54
1117,623	5,54
1117,862	2,54
1118,101	-12,46
1118,341	7,54
1118,58	10,54
1118,819	20,54
1119,058	-15,46
1119,297	8,54
1119,536	15,54
1119,775	10,54
1120,014	-9,46
1120,253	-17,46
1120,492	-14,46
1120,731	5,54
1120,97	-6,46
1121,209	8,54
1121,448	-2,46
1121,687	-8,46
1121,926	-0,46
1122,165	-5,46
1122,404	4,54
1122,642	3,54
1122,881	-16,46
1123,12	-15,46
1123,359	7,54
1123,598	2,54
1123,837	6,54
1124,076	-18,46
1124,315	1,54
1124,553	6,54
1124,792	-1,46
1125,031	7,54
1125,27	-0,46
1125,509	4,54
1125,747	10,54
1125,986	13,54
1126,225	-15,46
